time,ax,ay,az,aT
0.0030,-0.4076,0.0400,-0.4323,0.596
0.0130,-0.0634,-0.0761,-0.4027,0.415
0.0330,0.0433,-0.1677,-0.2772,0.327
0.0520,-0.2302,-0.1723,-0.1037,0.306
0.0720,-0.2994,-0.1051,-0.0130,0.318
0.0910,-0.3867,-0.0362,-0.1289,0.409
0.1100,-0.2939,-0.0875,-0.1837,0.357
0.1290,-0.2311,-0.0715,-0.1839,0.304
0.1490,-0.0089,-0.0893,-0.1279,0.156
0.1680,0.1395,-0.1018,-0.0297,0.175
0.1880,-0.0144,-0.0918,-0.1199,0.152
0.2070,-0.2719,0.0786,-0.1818,0.336
0.2270,-0.2699,0.1167,-0.0457,0.298
0.2460,-0.2562,0.1278,-0.0113,0.286
0.2660,-0.2878,0.1801,-0.0378,0.342
0.2850,-0.3129,0.0586,-0.0258,0.319
0.3040,-0.3689,0.0042,-0.1141,0.386
0.3240,-0.3352,0.0154,-0.1151,0.355
0.3430,-0.2548,0.0389,-0.0969,0.275
0.3620,-0.2329,0.0721,-0.0826,0.257
0.3820,-0.3237,0.1288,-0.0456,0.351
0.4010,-0.3008,0.1652,-0.0561,0.348
0.4210,-0.1692,0.1846,-0.1026,0.271
0.4430,-0.0922,0.1371,-0.0523,0.173
0.4630,-0.1782,0.0750,-0.1810,0.265
0.4790,-0.1325,-0.0478,-0.0492,0.149
0.4980,-0.1687,-0.0325,0.0564,0.181
0.5170,-0.3240,0.0143,-0.1370,0.352
0.5370,-0.1815,-0.0971,0.0143,0.206
0.5570,-0.0499,-0.1301,0.2107,0.253
0.5760,-0.2160,-0.2385,0.3157,0.451
0.5960,-0.3662,-0.1403,0.0139,0.392
0.6140,-0.3789,-0.1617,0.1336,0.433
0.6340,-0.3284,-0.0775,0.1915,0.388
0.6530,-0.5135,-0.1362,0.1816,0.561
0.6730,-0.8086,-0.2819,0.3228,0.915
0.6920,-0.9447,-0.2871,0.5399,1.125
0.7120,-0.7140,-0.2306,0.6375,0.985
0.7310,-0.7122,-0.1303,0.5325,0.899
0.7510,-0.8475,-0.3831,0.5587,1.085
0.7700,-0.9192,-0.4122,0.2799,1.046
0.7890,-1.1231,-0.2568,0.0061,1.152
0.8080,-1.2125,-0.2490,0.0902,1.241
0.8280,-1.1545,-0.2897,0.0792,1.193
0.8490,-0.4444,-0.6041,-1.2448,1.453
0.8670,-0.0593,-1.0534,-0.8102,1.330
0.8870,-0.6610,-1.4481,0.4304,1.649
0.9060,-0.7167,-1.2417,-0.0761,1.436
0.9250,-1.2441,-1.0754,0.8274,1.841
0.9440,-1.4474,-0.6314,0.8232,1.781
0.9640,-1.0174,-0.7038,0.5491,1.353
0.9830,-1.2682,-0.8229,0.8721,1.745
1.0030,-2.2114,-0.2175,0.9801,2.429
1.0220,0.2937,-1.2584,0.2727,1.321
1.0410,1.2137,-1.6676,-0.8148,2.218
1.0610,-0.3601,-1.6254,1.1003,1.996
1.0800,-0.6435,-1.8129,1.2325,2.285
1.0990,-0.8671,-1.8066,0.8201,2.165
1.1190,-1.1371,-1.5471,0.6054,2.013
1.1390,-0.3898,-1.9537,-0.6828,2.106
1.1580,-0.2078,-2.0411,0.3397,2.080
1.1770,-0.0887,-2.2887,0.2934,2.309
1.1960,-0.5497,-1.9288,0.8738,2.188
1.2160,-0.8069,-1.1942,0.4667,1.515
1.2350,-0.8593,-0.9293,-0.5934,1.398
1.2550,-0.9448,-1.7151,-1.6711,2.574
1.2770,-0.8060,-1.7922,-2.2616,2.996
1.2940,-1.1063,-1.2438,-1.8677,2.502
1.3130,-0.5069,-1.0987,-1.3487,1.812
1.3320,0.0527,-1.0934,-0.2496,1.123
1.3520,0.1336,-1.5208,1.2235,1.956
1.3710,-0.2871,-1.8314,-0.1506,1.860
1.3900,-0.2611,-1.5349,-1.9363,2.485
1.4100,-0.2500,-0.8453,-1.8054,2.009
1.4290,-0.5373,-0.6685,-1.0771,1.377
1.4490,-0.1445,-0.7661,-0.7465,1.079
1.4730,0.9373,-0.6021,-0.3717,1.174
1.4870,1.4875,-0.2546,-1.4281,2.078
1.5070,0.2036,0.7140,-1.0621,1.296
1.5270,-0.8778,1.0347,-1.8566,2.300
1.5460,-0.7873,1.2340,-1.1178,1.842
1.5650,0.7993,1.2559,0.3974,1.541
1.5860,2.1403,-0.2832,2.0854,3.002
1.6200,2.9757,-0.8105,2.0469,3.702
1.6240,2.2726,-0.5793,0.4129,2.381
1.6430,0.4736,0.5380,-0.7040,1.005
1.6630,-0.0335,1.3266,-1.3794,1.914
1.6820,0.6837,1.4676,-1.6422,2.306
1.7060,1.4144,1.0642,-0.1381,1.775
1.7470,1.1103,1.2924,1.6154,2.348
1.7480,0.8587,1.0813,1.5676,2.089
1.7600,0.6561,0.6987,0.7140,1.195
1.7780,0.3623,0.5827,0.8116,1.063
1.7980,0.4956,0.5063,1.1547,1.355
1.8170,0.7118,0.2870,1.3944,1.592
1.8360,0.4998,0.2532,1.0103,1.155
1.8570,0.3383,0.1259,0.7111,0.798
1.8990,0.2859,0.1709,0.6459,0.727
1.8990,0.2708,0.0468,0.6982,0.750
1.9140,0.3407,-0.1972,0.4663,0.610
1.9330,0.2580,-0.3456,0.2794,0.514
1.9540,-0.0018,-0.3947,-0.0721,0.401
1.9740,-0.2816,-0.4914,-0.6670,0.875
1.9920,-0.2240,-0.5071,-0.9961,1.140
2.0140,0.1408,-0.4666,-0.4869,0.689
2.0530,0.3963,-0.6136,0.3515,0.811
2.0530,0.5400,-1.1891,0.5930,1.434
2.0690,0.2998,-1.5683,0.1595,1.605
2.0900,-0.1582,-1.1635,-0.6917,1.363
2.1090,-0.6625,-0.5544,-2.1055,2.276
2.1280,-1.0565,0.1116,-3.7017,3.851
2.1480,-1.2137,0.7149,-4.4520,4.670
2.1860,-1.1413,1.0914,-3.1738,3.545
2.1860,-0.1926,0.3365,-0.9192,0.998
2.2050,0.2277,-0.1589,0.7312,0.782
2.2260,0.0622,0.3133,0.5341,0.622
2.2460,-0.3720,0.8096,-0.5687,1.057
2.2640,-0.7029,0.9140,-1.2229,1.681
2.2870,-0.7902,0.8151,-0.9656,1.490
2.3220,-0.7066,0.6693,-0.0643,0.975
2.3220,-0.5753,0.4068,1.1111,1.316
2.3410,-0.4436,0.2169,2.1307,2.187
2.3600,-0.4466,0.0925,2.4494,2.492
2.3800,-0.4281,0.0210,2.5272,2.563
2.4250,-0.5205,0.0130,2.5542,2.607
2.4260,-0.5692,-0.1607,2.2544,2.331
2.4380,-0.5817,-0.3102,2.0815,2.183
2.4580,-0.7443,-0.0865,2.0126,2.148
2.4770,-0.5663,-0.1808,1.4825,1.597
2.4980,-0.8654,-0.1110,1.0790,1.388
2.5190,-0.9965,-0.5439,0.8736,1.432
2.5600,-1.0116,-0.7868,0.3062,1.318
2.5610,-0.6635,-0.9309,-0.0181,1.143
2.5730,0.1717,-1.6183,0.0100,1.627
2.5940,0.0932,-1.4179,-0.8960,1.680
2.6140,-0.2617,-0.7723,-2.2339,2.378
2.6330,-0.1925,-0.6459,-2.7119,2.794
2.6520,0.3254,-1.1049,-1.9339,2.251
2.6710,0.8931,-1.1533,-1.4373,2.048
2.7090,1.2781,-0.6330,-1.9236,2.395
2.7100,0.7083,0.4490,-2.5787,2.712
2.7290,0.1521,1.3100,-2.8556,3.145
2.7490,0.4495,1.6669,-1.9993,2.642
2.7690,1.0849,1.3668,-0.1741,1.754
2.7870,1.3614,1.2711,0.5490,1.942
2.8070,1.1295,1.1421,0.3944,1.654
2.8490,0.5902,1.1023,-0.4360,1.324
2.8490,0.2979,1.2673,-0.7338,1.494
2.8640,0.1542,1.6502,-0.1983,1.669
2.8840,0.1511,1.8822,0.8550,2.073
2.9040,0.6063,2.2436,2.7833,3.626
2.9230,0.2270,2.4463,3.3554,4.159
2.9430,0.3676,2.0707,2.0680,2.949
2.9820,0.1961,2.2433,1.1306,2.520
2.9820,0.1749,2.1611,1.3205,2.539
3.0010,0.2783,1.8127,2.7283,3.287
3.0200,0.6524,1.4442,2.9786,3.374
3.0400,0.3647,1.0806,2.0361,2.334
3.0590,0.0363,0.7845,0.8844,1.183
3.0790,0.2190,0.3631,0.3311,0.538
3.1200,-0.2572,-0.5619,-0.7529,0.974
3.1200,-0.7801,-0.7823,-1.9271,2.221
3.1370,-1.3689,-0.8119,-1.9358,2.506
3.1570,-1.7951,-1.8380,-2.1192,3.330
3.1750,-1.6616,-2.4351,-1.8486,3.480
3.1950,-1.6813,-2.5474,-0.8098,3.158
3.2150,-1.8211,-2.1395,-0.1697,2.815
3.2450,-1.7391,-2.1001,0.2317,2.737
3.2520,-2.1837,-1.2746,-0.6500,2.611
3.2720,-2.9520,-1.2992,-2.3247,3.976
3.2920,-5.2262,1.1780,-9.7531,11.128
3.3110,-0.7211,0.3841,-2.2524,2.396
3.3350,1.3697,2.1211,4.4456,5.113
3.3830,1.3637,3.2187,2.6810,4.405
3.3840,-0.1865,4.2187,-4.0264,5.835
3.3900,0.1166,1.9422,-4.7175,5.103
3.4080,0.3887,0.9354,-2.5951,2.786
3.4280,1.0384,0.8574,1.2125,1.812
3.4470,0.3723,1.7786,4.4398,4.797
3.4660,-0.4496,1.2000,2.9160,3.185
3.4860,-0.1594,-1.0428,1.9721,2.237
3.5100,-0.1127,-0.5684,2.6936,2.755
3.5520,0.3881,0.0386,3.0372,3.062
3.5520,0.1415,-0.2570,1.8179,1.841
3.5630,-0.4703,0.4928,2.0822,2.191
3.5830,-0.7482,-0.3258,1.8185,1.993
3.6020,-2.0305,-1.5130,1.8045,3.109
3.6220,-1.7271,-2.3475,-2.4772,3.825
3.6430,-2.5454,0.3001,-4.6293,5.291
3.6850,-1.6062,-0.6666,-2.9849,3.455
3.6850,-0.8107,-0.8187,0.5422,1.273
3.6980,0.1858,0.1534,1.9586,1.973
3.7220,0.5961,-0.1728,2.0262,2.119
3.7640,0.0958,-0.1040,-0.6626,0.677
3.7640,-0.8055,1.2619,-3.8079,4.092
3.7760,-0.7161,2.9926,-1.9841,3.661
3.7960,0.1535,1.8347,1.6016,2.440
3.8150,0.1751,-0.0661,2.0063,2.015
3.8390,-0.4297,-0.4990,-0.3936,0.767
3.8850,-1.2323,0.1155,-3.3910,3.610
3.8860,-1.7081,1.3815,-4.2333,4.769
3.8920,-1.0679,2.5250,-2.7295,3.869
3.9120,-0.4347,2.2629,0.1207,2.307
3.9320,0.0426,1.1841,2.1596,2.463
3.9510,-0.1727,0.8007,2.6624,2.786
3.9720,-0.5786,0.5927,2.4818,2.616
4.0010,-1.1650,0.3720,2.1314,2.457
4.0100,-1.0083,-0.0605,2.0907,2.322
4.0290,-0.8339,-0.3210,2.8259,2.964
4.0490,-0.5101,-0.7253,3.7640,3.867
4.0680,0.1815,-0.1533,4.2548,4.261
4.0870,0.6643,0.2208,3.5382,3.607
4.1070,0.2838,1.0266,1.4623,1.809
4.1280,-0.5250,1.9183,-2.2796,3.025
4.1730,0.4178,1.6464,-0.6064,1.804
4.1740,1.5754,1.1320,2.1299,2.881
4.1830,1.3974,1.8271,2.6083,3.478
4.2030,0.9505,1.5758,1.5334,2.395
4.2230,0.3764,1.0814,1.3394,1.762
4.2420,0.1204,0.7472,1.6923,1.854
4.2620,0.1637,0.5520,2.5361,2.601
4.3050,0.3314,0.2899,2.2481,2.291
4.3060,1.3033,-0.3147,2.7500,3.059
4.3190,2.2952,-0.6786,0.7667,2.513
4.3410,2.1471,-0.0385,-1.4343,2.582
4.3860,1.4171,0.7398,-2.2708,2.777
4.3860,-0.1422,0.5933,-4.0702,4.116
4.3970,-1.3476,0.9265,-7.2025,7.386
4.4170,-1.0468,1.8360,-4.4566,4.932
4.4360,-0.3978,0.2801,-0.4682,0.675
4.4560,-0.6934,-1.5815,0.3415,1.760
4.4840,-1.1623,-2.3892,-1.4622,3.033
4.4940,-1.7756,-1.7337,-3.7452,4.493
4.5140,-1.7192,-0.6469,-2.3965,3.019
4.5330,-1.3789,0.0083,0.7443,1.567
4.5530,-1.3811,-0.4193,3.0304,3.357
4.5720,-1.2494,-0.9626,2.3937,2.867
4.5950,-1.6583,-0.4105,1.0037,1.981
4.6420,-1.6889,-0.0109,1.1907,2.066
4.6420,-1.4124,-0.0267,2.0298,2.473
4.6490,-0.8870,0.2358,2.9429,3.083
4.6680,0.1220,-0.0735,3.2638,3.267
4.6880,1.2260,-0.9444,3.2630,3.611
4.7080,2.1572,-1.8519,2.6363,3.877
4.7270,1.3927,-1.6805,-0.8956,2.359
4.7480,0.9007,-1.1007,-2.7309,3.079
4.7920,0.5382,0.3789,-3.0021,3.073
4.7930,0.0287,1.7367,-6.6899,6.912
4.8040,-0.6390,3.6063,-7.0199,7.918
4.8240,0.0409,3.1068,-3.3698,4.584
4.8440,0.5442,2.3091,-0.5286,2.431
4.8640,0.5636,1.6674,0.6199,1.866
4.8840,0.3614,0.4783,1.9040,1.996
4.9290,0.2361,-0.4673,2.9543,3.000
4.9290,0.2322,-0.8964,3.4715,3.593
4.9400,-0.0161,-1.0475,1.9853,2.245
4.9600,-0.1129,-0.8807,2.0688,2.251
4.9790,0.0087,-0.5803,3.0104,3.066
4.9990,-0.0509,0.0073,3.0141,3.015
5.0180,-0.2863,0.1342,3.3527,3.368
5.0370,-0.4430,-0.1615,3.7744,3.804
5.0570,-0.2587,-0.4508,2.8475,2.895
5.0760,0.2631,-0.7082,1.0341,1.281
5.0960,0.9768,-1.1983,0.1438,1.553
5.1150,1.4038,-1.5879,-0.4790,2.173
5.1350,0.1042,-0.9754,-1.5687,1.850
5.1760,-1.2056,-0.1240,-4.8776,5.026
5.1770,-2.4942,2.0701,-7.5749,8.239
5.1920,-3.3738,3.2578,-4.5531,6.537
5.2120,-2.8903,1.9604,-1.8844,3.968
5.2320,-2.1654,-0.2431,-0.9723,2.386
5.2510,-1.5085,-0.8341,-1.1150,2.053
5.2700,-0.9822,-0.2139,-0.5032,1.124
5.3080,-0.3305,-0.4205,1.3298,1.433
5.3090,0.3795,-0.7569,2.2606,2.414
5.3280,0.0869,-0.5210,2.4487,2.505
5.3500,0.0064,-0.2808,1.1765,1.210
5.3850,-0.2593,0.3529,0.8772,0.980
5.3870,-0.5462,0.6380,2.1677,2.325
5.4050,-0.1382,0.3178,3.6872,3.703
5.4250,0.3040,0.4169,3.6299,3.666
5.4450,0.7224,-0.0326,2.1901,2.306
5.4640,1.2559,-1.0345,1.0057,1.913
5.4830,1.6584,-1.7870,-0.2280,2.449
5.5050,-0.2826,-0.9265,-3.2606,3.401
5.5460,-2.0546,0.5413,-6.3091,6.657
5.5460,-2.0655,1.0565,-7.1778,7.543
5.5600,-0.7204,0.8068,-4.0753,4.216
5.5800,0.0753,0.2083,0.0997,0.243
5.6000,1.0212,-0.4981,0.6838,1.326
5.6190,1.4186,-0.5041,-1.0847,1.856
5.6380,1.2013,0.1846,-1.6709,2.066
5.6580,1.2681,0.2335,-0.7142,1.474
5.7000,1.2240,0.6258,0.6201,1.508
5.7000,1.2019,0.3991,0.8193,1.508
5.7160,0.9192,0.5707,1.3089,1.698
5.7350,0.0204,0.6960,1.9265,2.048
5.7550,-0.5199,0.6437,1.7320,1.920
5.7740,-0.6556,0.6620,1.9009,2.117
5.7940,-0.5279,0.1528,2.2245,2.291
5.8350,0.0267,-0.3956,2.6023,2.632
5.8350,0.7719,-0.5071,1.7857,2.010
5.8510,1.2829,-0.2487,-0.0085,1.307
5.8720,0.8648,0.3588,-2.0493,2.253
5.8910,-0.5299,1.6556,-2.0985,2.725
5.9340,-0.3709,1.2478,-1.5712,2.040
5.9340,-0.6080,0.6983,-4.2352,4.335
5.9480,-2.7308,1.7671,-5.7804,6.633
5.9680,-3.5089,2.1280,-4.2364,5.898
5.9880,-1.6926,0.1590,-0.7257,1.848
6.0080,-0.5007,-1.7631,1.9644,2.687
6.0490,-0.0229,-2.1665,2.5465,3.344
6.0500,0.3298,-1.3799,0.5345,1.516
6.0650,-1.1532,-0.1187,-1.9511,2.270
6.0850,-1.2241,1.0779,1.1121,1.974
6.1040,-1.8037,0.9584,1.6776,2.643
6.1240,-1.6599,1.7102,2.5452,3.487
6.1430,-1.8289,1.4335,3.4589,4.167
6.1870,-0.6474,0.8138,3.1868,3.352
6.1870,0.5253,-0.2237,2.0338,2.112
6.2000,2.3719,-0.8408,1.8226,3.107
6.2210,3.6127,-1.4132,0.9082,3.984
6.2400,2.6995,-0.9745,-1.7065,3.339
6.2600,1.3325,-1.0257,-3.7735,4.131
6.2790,1.2706,-1.3819,-5.2963,5.619
6.3230,0.0337,-0.5536,-7.2906,7.312
6.3240,-1.5185,1.2814,-5.9362,6.260
6.3370,-1.2806,1.6517,-2.8328,3.520
6.3560,-0.5998,0.9573,0.6926,1.325
6.3760,-0.1251,-0.3764,3.1330,3.158
6.3950,-0.1145,-1.0984,4.3321,4.471
6.4160,-0.2967,-1.8187,3.6216,4.063
6.4510,-0.7880,-1.3330,2.0855,2.597
6.4530,-1.2318,-0.2873,1.2960,1.811
6.4730,-1.5154,0.2062,2.1913,2.672
6.4930,-1.2388,0.1562,3.3550,3.580
6.5120,-1.0222,0.6670,4.7286,4.884
6.5320,-0.8088,1.4222,4.8539,5.122
6.5500,-0.4357,0.8438,3.4547,3.583
6.5700,0.1928,-0.5926,2.2734,2.357
6.5980,0.5126,-1.4396,1.4294,2.092
6.6080,-0.0131,-1.7649,0.0187,1.765
6.6270,-1.0643,-0.8746,-1.8098,2.274
6.6480,-1.9736,0.2011,-3.0368,3.627
6.6670,-2.0834,0.1580,-4.6006,5.053
6.6860,-2.3082,0.9429,-6.3858,6.855
6.7060,-3.1252,2.0901,-5.4481,6.619
6.7430,-3.1437,1.5672,-2.8686,4.535
6.7440,-2.4520,-0.4104,-0.8834,2.638
6.7630,-1.8921,-1.7231,0.7560,2.669
6.7830,-1.5874,-2.3602,0.0253,2.844
6.8020,-1.1652,-2.2390,0.0695,2.525
6.8220,-0.8274,-1.8355,0.3365,2.041
6.8420,-0.4151,-1.2295,0.9384,1.601
6.8760,0.0101,-0.6014,1.3682,1.495
6.8800,0.0398,-0.1642,1.0722,1.085
6.9000,-0.1927,-0.1914,1.1059,1.139
6.9180,-0.5856,-0.4717,0.7828,1.085
6.9380,-0.1069,-0.6419,-0.1109,0.660
6.9570,0.5819,-0.2509,0.2519,0.682
6.9770,0.8959,-0.4003,0.9158,1.342
7.0070,2.4066,-1.6811,-0.6127,2.999
7.0150,3.6533,-2.5016,-3.3680,5.563
7.0350,2.7899,-0.9779,-6.1678,6.840
7.0540,1.8995,0.4020,-7.9840,8.217
7.0750,1.7731,0.7266,-8.4212,8.636
7.0930,1.2217,1.4901,-7.7720,8.007
7.1140,0.3681,2.1387,-5.8980,6.285
7.1330,0.1110,1.5043,-4.0539,4.325
7.1520,-0.3432,1.0456,-2.7550,2.967
7.1710,-0.7664,1.0788,-1.3223,1.871
7.1910,-0.8705,0.6834,0.3840,1.171
7.2090,-0.5157,0.0773,2.3130,2.371
7.2300,-0.0404,-0.1435,3.9111,3.914
7.2490,0.1326,0.3733,4.1370,4.156
7.2680,0.2127,1.1721,4.1064,4.276
7.3070,0.4091,1.4491,4.5324,4.776
7.3080,0.8098,0.8059,4.4541,4.598
7.3260,1.4376,-0.0792,3.6565,3.930
7.3450,1.8955,-0.1565,2.8179,3.400
7.3700,2.5071,-0.1517,2.0764,3.259
7.4050,2.6604,-0.2721,0.8792,2.815
7.4050,2.0233,-0.2263,-0.9303,2.238
7.4220,1.3910,-0.5852,-2.3322,2.778
7.4430,1.7237,-1.8860,-2.2287,3.390
7.4620,2.2069,-3.5651,-2.0491,4.667
7.4810,2.0553,-3.9422,-3.1798,5.466
7.5010,1.5455,-2.1067,-4.6980,5.376
7.5210,0.4035,0.8142,-5.6382,5.711
7.5590,-0.3689,2.0745,-5.2726,5.678
7.5590,0.2901,1.9983,-3.7331,4.244
7.5780,1.0343,2.2404,-1.4041,2.839
7.5970,1.2394,2.9870,-0.7663,3.323
7.6170,0.6886,3.5786,-1.6105,3.984
7.6370,0.1879,3.7091,-1.5219,4.014
7.6570,-0.2309,2.7227,-1.0924,2.943
7.6930,-0.1068,1.4709,-0.7763,1.667
7.6950,-0.2122,1.4554,-0.3229,1.506
7.7130,-0.4505,1.6254,0.2184,1.701
7.7330,-0.3068,1.1165,0.6557,1.331
7.7550,0.1546,0.9126,1.2826,1.582
7.7720,-0.0104,1.1611,1.6706,2.034
7.7950,0.1755,0.9131,1.4435,1.717
7.8270,0.7277,0.9392,1.5249,1.933
7.8300,0.8861,1.5083,1.2126,2.128
7.8500,1.0420,2.0220,0.8733,2.437
7.8690,0.6629,2.9502,0.6581,3.095
7.8900,0.2473,2.8048,0.2458,2.826
7.9080,0.0361,2.7465,0.1517,2.751
7.9280,-0.1409,2.5999,-0.4766,2.647
7.9570,-0.0961,2.4295,-0.7095,2.533
7.9660,-0.4159,1.7728,-0.7889,1.984
7.9860,-0.4884,1.1698,-0.7885,1.493
8.0050,-1.0341,0.8129,-1.2510,1.815
8.0240,-1.5989,0.4706,-1.7367,2.407
8.0440,-1.3916,-0.5351,-2.0853,2.564
8.0650,-4.2361,0.0330,-1.2291,4.411
8.0890,1.8454,-6.6778,-1.4244,7.073
8.1020,-0.4286,0.9646,-2.2751,2.508
8.1210,-2.4936,6.6108,-0.8175,7.113
8.1400,-2.0207,3.9137,3.1125,5.393
8.1600,0.7258,-2.2485,5.5108,5.996
8.1790,1.2368,-4.2266,2.3399,4.987
8.1990,0.1431,-0.4894,-3.5198,3.557
8.2220,-1.1549,3.7662,-5.6468,6.885
8.2370,-0.5990,2.5829,-2.3126,3.518
8.2560,0.0231,0.3429,1.0022,1.059
8.2760,-0.4603,0.1591,2.7310,2.774
8.2960,-0.9360,0.8645,2.5722,2.870
8.3170,-1.0091,0.8864,1.8409,2.279
8.3470,-1.1766,0.2576,1.1617,1.673
8.3540,-1.2366,-0.4000,1.0235,1.654
8.3740,-1.6270,-0.6830,1.3284,2.209
8.3930,-2.1226,-0.7823,1.8081,2.896
8.4120,-2.4577,-1.2150,1.9061,3.339
8.4320,-2.6893,-1.3578,1.5290,3.378
8.4580,-2.9374,-1.3220,1.3032,3.475
8.4700,-2.3824,-1.6416,1.5207,3.269
8.4900,-0.9459,-1.5922,1.1254,2.167
8.5100,-1.0453,0.4187,-0.5393,1.249
8.5290,-2.3193,2.8915,-2.9067,4.711
8.5480,-2.0200,2.6301,-3.6324,4.919
8.5680,-0.8747,0.9970,-2.4658,2.800
8.6020,-0.8532,0.9117,-1.3104,1.810
8.6070,-0.9960,1.2734,-0.7821,1.796
8.6250,-1.0196,0.8583,-0.4416,1.404
8.6470,-0.9497,0.3989,0.0741,1.033
8.6640,-1.2434,0.4305,0.6096,1.450
8.6830,-1.5142,0.5947,0.4901,1.699
8.7040,-1.4735,0.5436,0.2751,1.594
8.7350,-1.3320,0.7199,0.5504,1.611
8.7410,-1.3103,0.9592,0.9325,1.873
8.7630,-1.3625,1.1080,0.9517,1.997
8.7800,-1.3012,1.1606,0.3116,1.771
8.8000,-1.0299,1.1427,-1.0888,1.885
8.8200,-0.2242,0.7657,-2.5630,2.684
8.8390,0.6733,1.5601,-2.3679,2.914
8.8610,0.9321,2.7412,-0.8168,3.008
8.8860,1.4343,2.5277,0.5318,2.955
8.8970,1.7824,1.3801,0.5743,2.326
8.9160,1.9393,0.0603,-0.4702,1.996
8.9360,2.3716,-1.2099,-1.4251,3.020
8.9570,3.1103,-1.7743,-1.8285,4.021
8.9810,3.7879,-1.9990,-2.0888,4.765
8.9940,3.8679,-1.5140,-1.9759,4.600
9.0150,3.6583,-0.7371,-1.8728,4.175
9.0330,2.9572,0.3283,-1.9786,3.573
9.0530,2.4458,1.3044,-2.0792,3.465
9.0720,2.1287,1.9141,-1.3895,3.182
9.0910,1.7956,2.0205,-0.4042,2.733
9.1110,1.0449,1.7932,0.6108,2.163
9.1330,0.5321,1.3717,1.6141,2.184
9.1490,0.1182,1.0342,1.9163,2.181
9.1680,0.0490,1.0016,2.0904,2.318
9.1880,0.0650,1.2038,2.3834,2.671
9.2080,-0.3642,1.2645,2.3301,2.676
9.2390,-0.8425,0.7274,2.1530,2.424
9.2460,-0.9674,-0.6072,2.0390,2.337
9.2650,-1.0678,-1.1205,2.2060,2.695
9.2840,-0.7925,-1.1213,2.1655,2.564
9.3040,-0.2591,-1.3881,1.6824,2.196
9.3250,0.0027,-1.8498,0.8775,2.047
9.3440,0.2580,-2.0495,0.1982,2.075
9.3690,0.6951,-2.5818,-0.7164,2.768
9.3820,0.8918,-2.9646,-1.5741,3.473
9.4010,1.0560,-2.8988,-2.5046,3.974
9.4210,0.3492,-1.8048,-3.4564,3.915
9.4400,-1.4407,0.0718,-4.5216,4.746
9.4600,-3.2220,2.0192,-4.5703,5.945
9.4800,-4.5593,2.2299,-4.5095,6.789
9.5010,-5.3601,0.6365,-4.0467,6.746
9.5210,-5.0692,-0.9619,-2.5186,5.742
9.5370,-4.5091,-0.9491,-0.4783,4.633
9.5570,-4.0417,-0.1740,0.8980,4.144
9.5770,-3.4118,0.2225,1.5415,3.750
9.5960,-2.7701,0.5398,1.3862,3.144
9.6160,-2.6864,1.4321,1.2148,3.278
9.6380,-2.8885,2.0813,2.0812,4.124
9.6530,-2.4897,1.6564,3.0650,4.282
9.6730,-1.8286,0.4404,3.8650,4.298
9.6930,-1.3834,-0.4378,3.6505,3.928
9.7120,-1.4233,-0.6285,2.6064,3.035
9.7310,-1.6821,-0.2571,1.5529,2.304
9.7530,-1.7477,-0.2677,0.6259,1.876
9.7710,-1.4623,-0.6398,0.1832,1.607
9.7890,-0.8672,-1.1218,-0.1609,1.427
9.8080,-0.5315,-1.3147,-1.2420,1.885
9.8290,-0.4710,-1.0973,-1.8106,2.169
9.8470,0.1035,-0.9751,-2.2167,2.424
9.8670,0.7401,-0.9452,-2.0269,2.356
9.8880,1.2433,-0.8153,-1.9626,2.462
9.9230,1.3717,-0.5968,-2.2574,2.708
9.9250,1.4685,-0.1643,-2.4242,2.839
9.9440,1.7287,0.2586,-1.7769,2.493
9.9640,1.8407,0.2578,-1.1003,2.160
9.9830,1.4824,-0.0887,-1.3270,1.992
10.0030,0.6700,0.1651,-2.4241,2.520
10.0230,0.0360,1.1604,-3.3937,3.587
10.0460,-0.0088,1.9508,-3.4222,3.939
10.0750,0.5499,1.7242,-2.5676,3.141
10.0800,0.7041,1.0391,-1.8387,2.226
10.1000,0.2703,1.0795,-1.9348,2.232
10.1190,-0.5260,1.4464,-2.4888,2.926
10.1390,-0.9848,1.8343,-1.9141,2.828
10.1580,-0.9270,1.9118,-0.4684,2.176
10.1780,-0.6551,1.4694,1.4616,2.174
10.2090,-0.3486,0.9748,3.0813,3.251
10.2160,-0.3091,0.6059,3.9080,3.967
10.2370,-0.2672,0.1430,4.0197,4.031
10.2580,-0.4266,0.0279,3.6994,3.724
10.2740,-0.6174,0.1113,2.7688,2.839
10.2940,-0.6539,0.3128,2.2526,2.366
10.3140,-0.3184,0.4107,1.8045,1.878
10.3440,-0.3999,0.3314,1.6107,1.692
10.3510,-0.1696,-0.0366,0.8820,0.899
10.3710,-0.2895,0.0359,0.0342,0.294
10.3910,-0.3696,-0.0294,-1.0715,1.134
10.4120,-0.2962,-0.1282,-2.0092,2.035
10.4290,-0.0775,-0.1320,-2.6968,2.701
10.4490,0.1543,0.0795,-2.7409,2.746
10.4770,0.4350,0.0221,-2.2713,2.313
10.4880,0.6147,-0.4727,-2.0531,2.195
10.5060,0.1728,-0.5033,-2.4288,2.486
10.5260,-0.7129,0.2690,-3.4689,3.552
10.5460,-1.6297,1.4868,-3.6444,4.260
10.5650,-1.7354,2.4710,-2.1869,3.728
10.5850,-0.8031,1.9129,0.2850,2.094
10.6050,-0.4341,0.7531,2.0903,2.264
10.6310,-0.6517,-0.2707,2.4674,2.566
10.6420,-0.8813,-0.8569,1.7406,2.131
10.6620,-0.9116,-0.6511,0.4364,1.202
10.6810,-0.9211,0.4034,-0.2707,1.041
10.7010,-0.5464,1.3403,0.1239,1.453
10.7200,0.2397,1.4398,1.4308,2.044
10.7410,0.8176,0.9756,2.4294,2.743
10.7640,0.9202,0.7380,2.6756,2.924
10.7780,0.7284,0.8097,2.2156,2.469
10.7980,0.6118,0.7142,1.4402,1.720
10.8180,0.6975,0.4513,0.7756,1.137
10.8370,0.5372,0.4504,0.2544,0.746
10.8560,0.3218,0.5446,-0.2613,0.684
10.8840,0.1899,0.7930,-0.6825,1.063
10.8960,-0.1246,1.1127,-0.9596,1.475
10.9140,-0.4860,1.2029,-0.8772,1.566
10.9330,-0.4436,0.6216,-0.6946,1.032
10.9530,-0.3629,0.0521,-0.5487,0.660
10.9720,-0.3176,-0.1725,-0.5459,0.655
10.9960,0.1366,-0.4499,-0.4947,0.683
11.0340,0.7412,-0.9004,-0.7847,1.406
11.0350,0.9494,-0.6891,-1.8505,2.191
11.0520,0.6821,0.5449,-2.7613,2.896
11.0700,0.7025,1.5936,-2.8766,3.363
11.0890,1.2602,1.8191,-2.3177,3.205
11.1090,1.5023,1.8475,-1.5846,2.860
11.1280,1.4916,2.0299,-0.7877,2.639
11.1490,1.6183,2.1123,0.1742,2.667
11.1810,1.6783,1.8554,1.0104,2.698
11.1860,1.6964,1.4046,1.2831,2.549
11.2050,1.4001,1.0553,0.7390,1.903
11.2250,0.7770,1.2498,-0.1885,1.484
11.2440,0.4616,1.3888,-0.8622,1.699
11.2660,0.3575,1.4810,-0.6253,1.647
11.2830,0.5488,1.1012,0.0153,1.230
11.3030,0.6807,0.6099,0.8177,1.226
11.3360,0.5663,0.2254,0.9138,1.098
11.3410,0.2805,0.2217,0.3729,0.517
11.3600,-0.1475,0.5021,-0.1279,0.539
11.3810,-0.2559,0.4441,-0.4756,0.699
11.4100,-0.3190,0.3221,-0.4233,0.620
11.4180,-0.3339,0.2637,-0.0885,0.435
11.4380,-0.3227,0.1726,0.1381,0.391
11.4570,-0.3863,0.1109,0.2373,0.467
11.4780,-0.4158,-0.0326,0.0862,0.426
11.4960,-0.2618,-0.1393,0.1709,0.342
11.5160,-0.1680,-0.2253,0.3563,0.454
11.5360,0.0196,-0.3626,0.5217,0.636
11.5700,0.0428,-0.4468,0.5097,0.679
11.5730,-0.0252,-0.4866,0.3870,0.622
11.5930,-0.0627,-0.6938,0.2763,0.749
11.6120,-0.0205,-1.0828,0.4021,1.155
11.6320,0.1108,-1.4100,0.4379,1.481
11.6510,0.1526,-1.4985,0.3134,1.538
11.6720,0.0190,-1.4498,0.0609,1.451
11.7060,-0.0033,-1.5173,-0.0885,1.520
11.7090,0.1889,-1.7028,0.0073,1.713
11.7290,0.4001,-1.8991,0.1875,1.950
11.7490,0.4921,-2.0638,-0.0207,2.122
11.7710,0.5444,-2.0941,-0.5109,2.223
11.7870,0.5168,-1.9291,-0.9582,2.215
11.8070,0.5882,-1.6398,-1.3275,2.190
11.8410,0.5502,-1.0747,-1.7000,2.085
11.8450,0.6048,-0.5789,-1.7279,1.920
11.8650,0.6259,-0.3146,-1.5563,1.707
11.8840,0.3244,-0.1999,-1.5865,1.632
11.9040,-0.1446,-0.0833,-1.8176,1.825
11.9230,-0.8090,0.2871,-1.9781,2.156
11.9430,-1.2471,0.5624,-1.8049,2.265
11.9730,-1.4145,0.8555,-1.0610,1.964
11.9800,-1.3253,1.1755,-0.0396,1.772
12.0010,-1.2612,1.3998,0.8949,2.086
12.0200,-1.1611,1.4588,1.5578,2.430
12.0390,-1.2870,1.4506,1.8117,2.654
12.0590,-1.5810,1.2686,1.6688,2.626
12.0780,-1.4925,0.7630,1.3946,2.181
12.0980,-1.3570,0.5768,1.1788,1.888
12.1230,-1.1249,0.5160,1.1060,1.660
12.1360,-0.6717,0.2487,1.1449,1.350
12.1560,-0.0841,-0.0270,1.3411,1.344
12.1750,-0.1117,0.1114,1.2538,1.264
12.1940,-0.1629,0.0916,0.9462,0.964
12.2140,-0.0176,-0.1118,0.7241,0.733
12.2340,-0.1296,-0.3621,0.6883,0.788
12.2600,-0.2912,-0.7601,0.8927,1.208
12.2720,-0.2959,-1.3838,0.9938,1.729
12.2910,-0.4066,-1.7384,0.7550,1.938
12.3110,-0.7278,-1.5442,0.0784,1.709
12.3300,-0.9593,-1.1320,-0.3110,1.516
12.3490,-1.1428,-0.6346,-0.1847,1.320
12.3690,-1.0206,-0.2251,0.3127,1.091
12.3900,-0.7198,-0.0327,1.0570,1.279
12.4070,-0.3954,-0.1649,1.6637,1.718
12.4280,-0.1704,-0.0400,1.6529,1.662
12.4460,-0.3807,0.7181,0.9827,1.275
12.4670,-0.8893,1.7089,0.3769,1.963
12.4850,-0.7881,1.8795,0.0065,2.038
12.5050,0.1590,1.1069,-0.1127,1.124
12.5300,1.7245,-0.6445,-0.3674,1.877
12.5430,3.1916,-2.1436,-1.2317,4.037
12.5630,3.0787,-1.9493,-2.6702,4.518
12.5830,0.7377,-0.1277,-3.3372,3.420
12.6020,0.3432,-0.0715,-2.1371,2.166
12.6210,0.7700,-1.0313,0.2105,1.304
12.6440,0.0813,-1.5677,1.7595,2.358
12.6600,-1.0961,-1.1989,1.9434,2.533
12.6790,-2.2905,-0.1614,1.7010,2.858
12.6990,-2.4896,0.2533,1.8690,3.123
12.7180,-2.0057,-0.0809,2.4632,3.178
12.7390,-1.5090,-0.6294,3.2061,3.599
12.7570,-1.0876,-0.9419,3.4770,3.763
12.7780,-0.8590,-0.9291,3.0883,3.337
12.8160,-0.6401,-0.6701,2.4510,2.620
12.8160,-0.1373,-0.5246,2.0166,2.088
12.8350,0.5359,-0.8274,1.7365,1.997
12.8530,1.2203,-1.3183,1.7337,2.497
12.8730,1.7869,-1.7103,1.3826,2.834
12.8930,1.9442,-1.4326,0.2939,2.433
12.9120,1.7206,-0.6038,-0.9791,2.070
12.9320,1.4832,0.0408,-1.5909,2.175
12.9630,1.7743,-0.6472,-1.8409,2.637
12.9700,1.9412,-1.6755,-2.5346,3.605
12.9900,0.9186,-1.0000,-3.7074,3.948
13.0090,-0.5160,0.5752,-4.2598,4.329
13.0290,-1.5324,1.8057,-4.1402,4.770
13.0480,-1.8751,1.7251,-4.1282,4.851
13.0680,-2.5981,2.0888,-3.7060,4.985
13.0950,-3.2880,2.0534,-2.9396,4.865
13.1060,-3.1314,1.3758,-1.8343,3.881
13.1250,-2.8070,0.6035,-0.6991,2.955
13.1450,-1.9307,0.0504,-0.0532,1.932
13.1640,-1.0387,0.0696,0.7999,1.313
13.1830,-0.6712,0.2261,2.1267,2.242
13.2040,-0.3048,0.0794,3.3311,3.346
13.2380,0.1302,-0.4314,4.0048,4.030
13.2420,0.1796,-0.8944,4.1347,4.234
13.2610,0.1610,-1.1131,3.8940,4.053
13.2800,0.0449,-1.0055,3.1000,3.259
13.3000,-0.2315,-0.5911,2.0593,2.155
13.3190,-0.3544,-0.3060,1.2023,1.290
13.3390,-0.4798,-0.3279,0.6405,0.865
13.3710,-0.3566,-0.5837,0.3306,0.760
13.3780,0.0058,-0.8799,0.5851,1.057
13.3970,0.2798,-1.5842,0.1088,1.612
13.4160,0.0946,-2.2875,-1.0505,2.519
13.4380,-0.0053,-2.1540,-2.5124,3.309
13.4550,-0.0090,-1.5199,-3.6686,3.971
13.4750,0.5106,-0.9593,-4.1949,4.333
13.5000,0.9809,-0.5879,-4.3575,4.505
13.5130,0.9940,0.1712,-4.6105,4.720
13.5320,0.9758,1.1694,-4.0635,4.340
13.5530,1.5076,1.3161,-3.3703,3.920
13.5710,1.4381,0.8892,-3.6842,4.054
13.5910,0.1548,1.3144,-4.3598,4.556
13.6100,-0.7300,2.0882,-4.1708,4.721
13.6310,-1.2090,2.7350,-2.7365,4.053
13.6550,-0.9350,2.5886,-0.4585,2.790
13.6680,-0.6779,1.8883,1.8022,2.697
13.6880,-0.9742,1.3059,3.4647,3.829
13.7070,-0.8402,0.8201,4.1729,4.335
13.7270,-0.8227,0.7674,4.5171,4.655
13.7460,-0.6031,1.0442,4.7715,4.921
13.7670,-0.2473,1.1411,5.1281,5.259
13.7910,-0.0190,0.9069,5.0674,5.148
13.8040,0.3201,0.2715,4.1193,4.141
13.8230,0.6461,0.0728,3.3559,3.418
13.8430,0.5557,0.2107,2.5525,2.621
13.8620,0.4181,-0.2116,1.5383,1.608
13.8860,0.2080,-0.9545,0.3599,1.041
13.9210,-0.1384,-1.3920,-0.9184,1.673
13.9220,-0.3138,-1.1194,-2.3481,2.620
13.9410,-0.4155,-0.4887,-3.0062,3.074
13.9590,-0.7310,-0.1844,-2.5732,2.681
13.9800,-0.6390,-0.9842,-3.0878,3.303
13.9980,-1.0895,-0.4478,-4.8188,4.961
14.0170,-2.3438,1.5367,-5.6733,6.328
14.0390,-3.0319,3.1300,-4.6731,6.390
14.0770,-2.2855,2.3558,-2.3467,4.035
14.0780,-1.7022,0.5801,-0.1187,1.802
14.0970,-1.2281,-1.0719,0.4723,1.697
14.1140,-1.0295,-1.2524,-0.5268,1.705
14.1350,-1.5910,0.4437,-1.1770,2.028
14.1530,-1.3576,1.4188,-0.2870,1.985
14.1730,-0.2686,1.3181,2.2351,2.609
14.1940,0.7029,0.5784,4.4145,4.507
14.2290,1.3765,-0.4158,5.5536,5.737
14.2310,1.3891,-0.8113,5.0555,5.305
14.2500,0.8014,-0.3755,3.2364,3.355
14.2690,0.2774,0.0429,1.9024,1.923
14.2900,-0.0702,0.1542,1.2804,1.292
14.3090,-0.0461,0.0245,1.3286,1.330
14.3390,-0.0243,-0.1559,1.3533,1.362
14.3470,-0.0466,-0.5794,1.1395,1.279
14.3670,0.2178,-1.0704,1.1910,1.616
14.3860,0.4275,-1.3550,0.9485,1.708
14.4060,0.0739,-1.2203,0.0053,1.223
14.4260,-0.4014,-0.7675,-1.5588,1.783
14.4550,-0.3524,-0.0569,-2.1298,2.160
14.4640,0.5132,0.1533,-1.2549,1.364
14.4830,1.1719,-0.7175,-1.3442,1.922
14.5020,1.1180,-1.2631,-2.9152,3.368
14.5220,0.1375,0.0831,-4.6006,4.603
14.5410,-0.5179,1.6802,-5.7414,6.005
14.5610,-0.6485,3.1175,-4.9890,5.919
14.5800,-0.0795,3.5886,-2.3797,4.307
14.6000,0.2179,3.0719,0.6419,3.146
14.6180,0.2218,2.4250,2.4464,3.452
14.6380,-0.0517,2.4792,2.6987,3.665
14.6570,-0.5020,2.4641,2.1095,3.282
14.6770,-0.6158,1.9895,2.3906,3.171
14.6960,-0.3938,1.0411,3.6434,3.810
14.7150,0.0005,0.0498,4.5488,4.549
14.7350,0.5919,-0.4089,4.1826,4.244
14.7540,0.5792,-0.1954,2.2094,2.292
14.7740,0.4632,0.0324,2.0893,2.140
14.7930,0.8015,-0.4984,2.0462,2.253
14.8120,1.1173,-1.0959,1.2404,1.997
14.8320,0.9217,-1.1608,-0.3375,1.520
14.8510,0.6023,-1.0602,-2.2140,2.528
14.8710,0.0471,-0.7206,-2.9664,3.053
14.8900,-0.4310,-0.3366,-3.5396,3.582
14.9090,-0.7810,-0.2113,-4.3439,4.419
14.9300,-0.8876,0.0735,-4.1155,4.211
14.9490,-0.7524,-0.2067,-3.2248,3.318
14.9680,-0.6052,-0.4260,-3.1740,3.259
14.9880,-1.3927,0.9115,-4.6079,4.899
15.0070,-2.0313,2.4917,-5.0120,5.954
15.0330,-1.8780,2.9393,-3.5452,4.973
15.0450,-1.5981,2.4493,-1.1466,3.141
15.0650,-1.2063,1.3843,1.6298,2.455
15.0850,-1.0219,0.7904,3.1837,3.436
15.1040,-0.6352,0.6018,2.1256,2.299
15.1300,-0.5556,0.6737,0.3201,0.930
15.1680,-0.1776,0.6533,-0.3624,0.768
15.1690,0.2676,0.2176,0.5190,0.623
15.1820,0.8307,-0.4227,2.3799,2.556
15.2010,1.3520,-1.1857,3.7041,4.118
15.2210,1.4656,-1.5324,3.7075,4.271
15.2400,1.2074,-1.0991,2.4987,2.985
15.2590,0.9609,-0.9969,1.4408,1.998
15.2780,0.6955,-0.8380,0.8570,1.386
15.3000,0.3373,-0.8619,0.0680,0.928
15.3380,-0.0017,-0.8572,-0.3076,0.911
15.3380,0.1225,-0.7773,0.0033,0.787
15.3550,0.1535,-0.7158,0.3148,0.797
15.3760,-0.1827,-0.6457,0.2029,0.701
15.3950,-0.8273,-0.3996,-1.4324,1.702
15.4140,-1.2119,-0.1046,-3.5377,3.741
15.4350,-1.0012,0.7806,-3.5316,3.753
15.4740,-0.4891,0.8792,-2.2764,2.489
15.4740,-0.8741,0.5819,-2.6062,2.810
15.4910,-1.7036,0.8283,-4.1003,4.517
15.5110,-1.9334,1.6134,-4.5448,5.196
15.5310,-1.0195,1.3229,-3.6471,4.011
15.5500,-0.6242,0.7139,-3.7556,3.873
15.5700,-0.8626,1.0227,-4.5452,4.738
15.6030,-0.8311,1.9485,-4.4952,4.969
15.6080,-0.1668,2.3075,-2.2512,3.228
15.6280,0.4712,2.2693,1.0003,2.524
15.6470,0.9858,1.7931,3.9516,4.450
15.6690,1.2728,1.0854,5.7502,5.989
15.6880,1.2977,0.5577,6.2653,6.423
15.7060,1.3880,0.3479,6.1298,6.295
15.7420,1.4315,0.1885,5.7856,5.963
15.7440,1.6358,0.0491,5.1811,5.433
15.7630,1.3664,-0.5297,3.5735,3.862
15.7840,1.0690,-0.6723,1.6760,2.099
15.8030,1.0065,0.1008,0.5115,1.134
15.8250,1.1323,0.6888,0.2379,1.347
15.8420,1.0971,0.6037,0.1433,1.260
15.8790,0.5619,0.4037,-0.3115,0.759
15.8800,-0.3463,0.4747,-2.0859,2.167
15.9000,-0.9623,0.8078,-4.4684,4.642
15.9190,-1.3223,1.3912,-5.0556,5.408
15.9380,-0.6045,1.3778,-2.9346,3.298
15.9590,0.1806,0.3156,-0.5712,0.677
15.9970,0.1046,-0.4840,0.0137,0.495
15.9970,-0.9842,-0.2152,-0.7930,1.282
16.0160,-2.7500,0.3597,-2.8084,3.947
16.0350,-4.2068,0.9388,-5.5751,7.047
16.0570,-4.2547,1.5599,-6.2991,7.760
16.0740,-3.3861,1.3732,-4.2786,5.627
16.0930,-2.1670,0.6325,-1.5704,2.750
16.1230,-1.0594,0.0088,0.2645,1.092
16.1310,-0.1258,-0.2478,1.3743,1.402
16.1510,0.5600,-0.3918,2.2545,2.356
16.1710,1.0957,-0.4502,3.1786,3.392
16.1910,1.4689,-0.7022,4.0359,4.352
16.2100,1.8110,-1.0176,4.4278,4.891
16.2300,1.6957,-1.2559,4.1476,4.654
16.2490,1.3904,-1.1691,3.3088,3.775
16.2750,1.1608,-0.7938,2.4807,2.852
16.2860,0.8527,-0.4018,2.1128,2.314
16.3060,0.4367,-0.2438,1.7097,1.781
16.3260,-0.1299,-0.3129,1.0408,1.095
16.3450,-0.7963,-0.4067,0.2505,0.929
16.3650,-1.0886,-0.3842,-0.6641,1.332
16.3960,-1.2761,-0.4967,-1.6497,2.144
16.4030,-1.3225,-0.3883,-2.9232,3.232
16.4240,-1.2085,0.2761,-3.5579,3.768
16.4430,-0.6835,0.2674,-3.0661,3.153
16.4620,-0.5612,-0.2948,-2.7456,2.818
16.4810,-0.9714,-0.3690,-3.5396,3.689
16.5010,-1.0537,0.1785,-3.9167,4.060
16.5340,-0.7064,1.0156,-3.3633,3.584
16.5400,-0.0245,0.8029,-2.2546,2.393
16.5580,-0.1303,0.7154,-1.8627,2.000
16.5780,-0.5931,1.1989,-2.5106,2.845
16.5970,-0.9583,1.9160,-3.0079,3.693
16.6170,-0.8968,2.6450,-2.0083,3.440
16.6460,0.0377,2.3874,0.6625,2.478
16.6550,1.0437,1.6824,3.5016,4.023
16.6760,1.7701,1.5809,5.6778,6.154
16.6950,2.1243,2.5319,5.7072,6.595
16.7140,1.8576,2.9723,4.4965,5.701
16.7330,1.8429,2.3430,4.3277,5.255
16.7530,1.8015,2.1244,4.1272,4.979
16.7810,1.9459,2.0475,4.1954,5.058
16.7910,2.0660,1.6565,3.7366,4.580
16.8100,2.1039,1.7077,2.4839,3.676
16.8300,1.9531,1.7673,2.1932,3.428
16.8510,1.7354,1.4961,2.1387,3.134
16.8690,1.1002,0.9514,1.4734,2.070
16.8880,0.2407,1.1075,0.9381,1.471
16.9080,-0.3920,1.1360,0.4320,1.277
16.9270,-1.6125,0.2790,-0.8017,1.822
16.9470,-3.1932,-0.9875,-3.1741,4.609
16.9660,-5.0471,-2.4376,-7.1160,9.058
16.9860,-6.3262,-2.7902,-11.0908,13.070
17.0050,-6.3960,-2.1004,-11.6266,13.435
17.0270,-4.8051,-1.0852,-7.6050,9.061
17.0530,-3.0951,-0.6542,-2.4179,3.982
17.0630,-2.1596,-0.9538,0.2834,2.378
17.0820,-1.5490,-1.1886,0.3541,1.984
17.1030,-1.1303,-1.0502,-0.4325,1.602
17.1210,-0.4829,-0.4027,-0.6885,0.932
17.1410,0.3529,0.2088,0.3898,0.566
17.1600,1.0851,0.7403,2.1651,2.532
17.1800,1.5838,1.0850,3.6421,4.117
17.2210,1.9140,1.0498,4.5163,5.016
17.2220,2.0747,1.0276,4.9434,5.459
17.2370,1.8544,0.7155,4.7275,5.128
17.2560,1.2859,0.3174,3.6009,3.837
17.2760,0.6254,-0.0706,2.0798,2.173
17.2970,-0.0010,-0.1547,0.7087,0.725
17.3170,-0.3832,-0.2526,-0.2190,0.509
17.3540,-0.3883,-0.3072,-0.3991,0.636
17.3540,-0.0239,-0.6196,-0.5113,0.804
17.3730,0.1934,-0.9115,-0.7241,1.180
17.3930,0.1867,-1.0760,-1.1591,1.593
17.4130,0.0898,-0.9930,-2.0406,2.271
17.4330,0.2048,-0.8165,-2.9282,3.047
17.4550,0.4401,-0.7843,-3.2228,3.346
17.4850,0.6184,-1.1934,-3.2299,3.498
17.4890,0.3687,-0.6720,-3.0486,3.144
17.5080,-0.0592,0.2401,-3.2058,3.215
17.5280,-0.2066,1.1772,-4.2889,4.452
17.5490,-0.1017,2.0796,-4.3169,4.793
17.5680,0.3951,2.1124,-3.0274,3.713
17.6070,0.4946,2.0624,-1.3473,2.513
17.6070,0.2935,2.2665,-0.6508,2.376
17.6250,0.0730,2.4027,-0.3381,2.427
17.6450,-0.0226,2.6704,0.7334,2.769
17.6650,0.1575,2.5027,2.2015,3.337
17.6830,0.5140,1.9885,3.7255,4.254
17.7070,0.7211,1.4322,4.6933,4.960
17.7410,0.6422,1.1626,4.9514,5.126
17.7420,0.5824,1.0107,4.1009,4.264
17.7610,0.5483,1.0379,3.2556,3.461
17.7820,0.6587,0.8016,2.4787,2.687
17.8060,0.9395,0.5403,1.9474,2.229
17.8190,1.2357,0.3647,1.2863,1.821
17.8380,1.3294,0.3681,0.9659,1.684
17.8570,1.4660,0.1234,0.9528,1.753
17.8770,1.2958,-0.2898,0.5063,1.421
17.8960,0.5468,-0.7439,-0.8787,1.275
17.9160,-0.3300,-0.7343,-2.8532,2.965
17.9380,-0.8882,-0.3147,-3.9922,4.102
17.9600,-1.0874,0.0185,-3.5647,3.727
17.9740,-0.5653,-0.2216,-2.5047,2.577
17.9940,-0.8225,0.0952,-2.5407,2.672
18.0130,-1.3188,1.0190,-3.5379,3.911
18.0320,-1.4445,1.6915,-3.3805,4.047
18.0520,-1.7976,2.2684,-2.3500,3.728
18.0710,-1.3565,1.5018,-1.2131,2.359
18.0900,-1.4659,0.8707,-0.5728,1.799
18.1110,-1.3269,0.4927,-0.5087,1.504
18.1300,-1.1453,0.6386,-0.3122,1.348
18.1560,-0.7365,0.9472,0.7015,1.390
18.1680,-0.3650,0.8145,2.3897,2.551
18.1870,-0.0679,0.0891,3.6485,3.650
18.2070,0.2930,-0.7826,4.2850,4.366
18.2260,0.7465,-1.1723,3.8353,4.079
18.2460,0.7081,-0.8294,2.8356,3.038
18.2650,0.5140,-0.5440,2.1417,2.269
18.2840,0.2224,-0.2794,1.1781,1.231
18.3040,-0.8302,-0.0727,0.3308,0.897
18.3230,-1.5484,-0.1284,-0.1542,1.561
18.3430,-1.4529,-0.5140,0.2282,1.558
18.3620,-0.7284,-1.1162,0.7819,1.545
18.3810,-0.6215,-1.4725,0.7128,1.750
18.4010,-0.8322,-1.4941,-0.2234,1.725
18.4200,-1.1346,-1.1005,-1.4734,2.161
18.4390,-0.9497,-0.2835,-1.7542,2.015
18.4590,0.1579,-0.0626,-0.8182,0.836
18.4780,1.0420,-0.4277,0.1332,1.134
18.4980,0.7291,-0.3422,-1.6051,1.796
18.5170,0.1523,0.5740,-3.9223,3.967
18.5370,0.1370,1.6973,-4.4487,4.763
18.5560,0.7524,2.1291,-3.1615,3.885
18.5750,1.2780,1.6180,-2.2374,3.043
18.5950,0.5675,1.8604,-2.1591,2.906
18.6140,0.1285,2.5342,-1.4377,2.916
18.6330,-0.1029,3.0743,-0.3343,3.094
18.6530,-0.3924,3.3777,0.9668,3.535
18.6730,-0.1228,2.8475,2.0197,3.493
18.6930,0.2166,2.4965,3.0378,3.938
18.7110,0.7929,1.5757,3.0703,3.541
18.7320,1.2881,0.7666,3.2402,3.570
18.7500,1.1819,0.6840,3.4288,3.691
18.7690,0.8679,0.1798,3.8655,3.966
18.7890,1.0842,-0.0336,4.7579,4.880
18.8080,1.3250,-0.0855,5.1230,5.292
18.8270,1.3514,-0.3514,3.5271,3.793
18.8480,1.4593,-0.5327,2.0058,2.537
18.8660,0.8674,-0.3387,1.3069,1.605
18.8850,0.0544,-0.2027,-0.0374,0.213
18.9060,-0.7138,-0.3990,-1.2581,1.501
18.9250,-1.4042,-0.0400,-2.2982,2.694
18.9440,-1.5677,0.4149,-2.2027,2.735
18.9640,-1.6715,0.3497,-2.6714,3.171
18.9830,-1.8156,-0.0935,-3.6066,4.039
19.0020,-2.6721,-0.3913,-4.2850,5.065
19.0210,-2.9958,-0.3022,-4.8048,5.670
19.0410,-2.6974,0.2115,-3.5753,4.484
19.0600,-1.8651,0.6727,-0.9534,2.200
19.0790,-1.3787,0.8475,1.2542,2.047
19.0990,-1.8774,0.9183,0.9864,2.311
19.1180,-2.2343,0.0810,-1.5890,2.743
19.1380,-2.1164,0.1200,-3.1823,3.824
19.1570,-0.8261,0.3982,-2.5721,2.731
19.1760,0.7219,0.2743,-0.5757,0.963
19.1960,2.0287,0.2368,2.0227,2.875
19.2150,2.7384,0.3398,3.9585,4.825
19.2360,2.9317,-0.5029,3.9501,4.945
19.2540,2.4845,-0.4058,3.0489,3.954
19.2730,1.8430,-0.4042,1.6489,2.506
19.2930,1.1089,-0.5313,1.5635,1.989
19.3120,0.0608,1.4217,2.0287,2.478
19.3310,-0.1514,1.2726,2.9951,3.258
19.3510,-0.3948,0.4655,3.0913,3.151
19.3710,0.6539,-0.2628,0.8475,1.102
19.3900,-0.8910,-0.5260,-0.7467,1.276
19.4090,-1.8218,-0.2619,-2.2328,2.894
19.4290,-1.7941,0.1757,-2.1113,2.776
19.4480,-1.3543,0.5201,-0.9200,1.718
19.4670,-1.1349,0.7866,-0.1028,1.385
19.4870,-1.0167,1.3051,0.7858,1.831
19.5070,-0.8974,1.4011,0.1377,1.670
19.5250,-1.1724,0.2011,0.6256,1.344
19.5460,-1.4418,0.4757,0.4024,1.571
19.5650,-1.4629,0.8480,-0.4179,1.742
19.5840,-1.5159,1.2465,-0.7563,2.103
19.6040,-0.8763,2.0962,0.7142,2.382
19.6230,-0.4810,2.6109,1.8555,3.239
19.6420,-0.7186,1.8705,0.5519,2.078
19.6610,-1.8046,1.7686,-2.1810,3.338
19.6810,-2.1491,1.5962,-4.1883,4.971
19.7000,-1.0843,0.9571,-3.2842,3.589
19.7190,1.4187,1.1149,-1.5873,2.403
19.7390,2.5137,1.8763,-0.1568,3.141
19.7580,2.6130,1.9645,1.1029,3.450
19.7780,1.8018,0.9020,0.0560,2.016
19.7970,1.1813,-0.5401,-1.4090,1.916
19.8160,1.5302,-0.8732,-1.6478,2.412
19.8360,2.6648,0.4998,-1.1157,2.932
19.8550,2.5846,1.7251,-0.3952,3.132
19.8750,1.5668,1.9760,-0.5068,2.572
19.8940,0.3742,1.9354,-0.6087,2.063
19.9130,-0.2560,2.0181,-0.3381,2.062
19.9330,-0.1529,1.2789,0.6956,1.464
19.9520,-0.6134,1.9608,0.4426,2.102
19.9730,-1.2606,2.4873,0.1604,2.793
19.9910,-1.4082,2.5761,-0.2929,2.950
20.0100,-1.7575,2.6710,0.0670,3.198
20.0300,-2.7289,2.7539,0.1790,3.881
20.0490,-3.8436,2.7822,0.0766,4.745
20.0690,-4.7032,2.3028,-0.1438,5.239
20.0940,-4.4933,1.1047,-0.4797,4.652
20.1080,-3.8779,0.6887,-0.8888,4.038
20.1270,-4.1016,1.0721,-1.1819,4.401
20.1460,-3.6487,0.4345,-0.4953,3.708
20.1660,-2.0689,-1.6542,-0.1164,2.651
20.1850,-1.0781,-3.5779,-0.7387,3.809
20.2050,-0.7991,-5.5574,-3.1237,6.425
20.2240,-0.3008,-6.3329,-4.3991,7.717
20.2430,1.5928,-4.9679,-3.5110,6.288
20.2630,2.1796,-3.3356,-1.4582,4.243
20.2820,2.3664,-3.1826,-0.6606,4.021
20.3010,1.6842,-3.2358,-0.0239,3.648
20.3250,0.9673,-3.1062,0.2927,3.266
20.3400,0.3694,-2.4757,-0.1084,2.505
20.3590,-0.6916,-1.7029,-0.4544,1.893
20.3790,-0.7251,-2.7639,0.5520,2.910
20.4010,-1.7257,-0.7762,0.1878,1.902
20.4190,-2.4628,0.1403,0.3088,2.486
20.4370,-2.5827,0.3578,0.6638,2.691
20.4570,-2.6911,0.2052,0.7864,2.811
20.4760,-2.6281,0.0424,0.6777,2.714
20.4950,-3.1926,1.1647,-1.2491,3.621
20.5150,-2.6080,1.5681,-0.3170,3.060
20.5340,-2.1526,1.7501,0.5626,2.831
20.5530,-2.2955,2.2524,1.4132,3.513
20.5760,-2.7657,2.6784,1.5343,4.144
20.5930,-3.0580,2.4674,1.6671,4.268
20.6120,-3.5803,2.5122,1.0814,4.505
20.6310,-3.5728,2.6649,0.1645,4.460
20.6510,-2.6616,2.0784,-1.3291,3.629
20.6700,-1.4406,1.0356,-2.4592,3.032
20.6900,-0.0607,0.7250,-2.4478,2.554
20.7090,1.0153,0.7289,-1.8355,2.221
20.7290,2.1703,0.5969,-1.2081,2.555
20.7480,2.8890,0.8588,-0.2623,3.025
20.7680,3.5107,0.9956,0.6404,3.705
20.7870,3.8470,1.0507,0.9613,4.102
20.8060,4.3599,0.7796,0.5074,4.458
20.8270,4.6403,0.7562,0.2413,4.708
20.8450,4.6622,1.3372,0.0360,4.850
20.8640,4.4994,2.1810,0.1311,5.002
20.8830,4.1547,3.0530,0.6137,5.192
20.9030,2.9252,4.2310,0.8138,5.208
20.9220,1.3310,5.2973,0.8621,5.530
20.9410,-0.1033,5.8424,0.5665,5.871
20.9670,-0.6948,4.9880,-0.2063,5.040
20.9960,-1.3102,4.3087,-0.9916,4.611
21.0000,-2.4841,4.7036,-1.4423,5.511
21.0190,-3.5483,4.4235,-1.3241,5.823
21.0390,-3.8392,3.6979,-0.9472,5.414
21.0580,-3.2891,1.7578,-0.7508,3.804
21.0800,-2.6868,-0.4155,-0.2547,2.731
21.1020,-2.7562,-1.0166,0.2781,2.951
21.1160,-2.6641,-0.6820,0.6845,2.834
21.1360,-2.4660,-0.0517,0.8057,2.595
21.1550,-1.9658,-0.0770,-0.1335,1.972
21.1740,-0.7655,-0.9417,-1.2950,1.775
21.1940,0.7137,-1.9985,-1.9066,2.853
21.2130,1.9052,-2.9124,-1.9261,3.978
21.2340,2.6642,-3.4193,-1.5253,4.595
21.2520,3.1293,-3.1996,-0.6830,4.527
21.2720,3.4062,-2.6264,0.3881,4.319
21.2910,3.4494,-2.1782,0.9519,4.189
21.3100,3.0116,-1.9494,0.9668,3.715
21.3300,2.2467,-1.9379,0.5739,3.022
21.3490,1.4984,-1.9365,0.0480,2.449
21.3730,0.8371,-1.7208,-0.1995,1.924
21.3870,0.2385,-1.4479,-0.1883,1.479
21.4080,-0.3289,-0.8262,0.1561,0.903
21.4280,-1.1823,-0.2684,0.4198,1.283
21.4470,-2.0776,0.2738,0.6665,2.199
21.4660,-2.8988,0.6820,0.9082,3.113
21.4850,-3.3690,0.4834,0.9196,3.526
21.5060,-3.7563,0.5917,0.6420,3.856
21.5230,-3.9529,1.1111,0.2785,4.115
21.5430,-3.9721,1.4813,0.2339,4.246
21.5620,-3.5341,1.0599,0.2892,3.701
21.5820,-3.0870,0.1047,0.4354,3.119
21.6010,-2.6566,0.3112,0.4343,2.710
21.6200,-2.6359,1.3191,0.3560,2.969
21.6410,-2.6789,2.3420,0.4249,3.584
21.6590,-2.3824,2.6653,0.1576,3.578
21.6780,-1.7525,1.6068,-0.6600,2.468
21.6980,-0.6676,0.1898,-1.5301,1.680
21.7170,0.6169,-0.6205,-1.4361,1.682
21.7370,1.8211,-0.9557,-0.7064,2.175
21.7560,2.8389,-0.9276,0.1146,2.989
21.7750,3.4074,-0.7438,0.5613,3.533
21.7950,3.6527,-0.5395,0.4146,3.716
21.8140,3.7378,-0.4160,0.0409,3.761
21.8340,3.7280,-0.0905,-0.3605,3.746
21.8530,3.6050,0.4099,-0.7620,3.707
21.8750,3.4328,1.1094,-0.8992,3.718
21.8920,3.1404,1.8655,-0.8144,3.742
21.9110,2.5575,2.5681,-0.5370,3.664
21.9310,1.3612,3.5227,-0.0238,3.777
21.9500,0.0957,4.3690,-0.0307,4.370
21.9690,-0.8627,4.8160,-0.3949,4.909
21.9890,-0.8927,4.4946,-1.2007,4.737
22.0080,-0.6990,3.8177,-1.6147,4.204
22.0280,-1.0429,3.5170,-1.5192,3.970
22.0470,-1.0723,3.1834,-0.4247,3.386
22.0670,-1.3566,3.0515,1.2369,3.561
22.0870,-1.6021,2.2350,2.0746,3.445
22.1050,-1.8317,0.7101,1.8199,2.678
22.1250,-1.8012,-0.4338,0.1858,1.862
22.1440,-1.8470,-0.6982,-1.0443,2.234
22.1630,-2.0046,-0.3088,-1.2718,2.394
22.1830,-1.6659,0.1005,-0.8445,1.870
22.2020,-0.8439,0.0816,-0.0576,0.850
22.2220,0.3193,-0.8442,0.2651,0.941
22.2410,1.6117,-1.9717,-0.1509,2.551
22.2600,2.3489,-2.6697,-0.6373,3.613
22.2800,2.9170,-3.0566,-0.8162,4.303
22.2990,3.2370,-2.6176,-0.3853,4.181
22.3190,3.3877,-2.0644,0.1040,3.969
22.3380,3.3678,-1.8201,0.5530,3.868
22.3570,2.8995,-1.7920,0.6936,3.478
22.3770,2.2690,-2.0199,0.5136,3.081
22.3960,1.5281,-1.9499,0.3861,2.507
22.4160,0.6882,-1.6630,0.3124,1.827
22.4350,-0.2367,-1.3535,0.3013,1.407
22.4540,-1.3006,-0.9178,0.2558,1.612
22.4740,-2.3827,-0.0737,0.3545,2.410
22.4930,-3.3033,0.7617,0.4091,3.415
22.5120,-3.5045,0.6897,0.3167,3.586
22.5320,-3.4985,0.6261,0.0374,3.554
22.5510,-3.6051,1.2107,-0.0699,3.804
22.5710,-3.7296,2.1671,0.3775,4.330
22.5900,-3.1833,1.7467,0.7253,3.703
22.6090,-2.5989,0.1457,1.2981,2.909
22.6290,-2.6216,-0.4875,1.4495,3.035
22.6490,-3.1013,0.2504,1.0415,3.281
22.6680,-3.3395,1.3557,0.4135,3.628
22.6880,-3.1235,1.6202,-0.5712,3.565
22.7070,-2.4529,0.8074,-1.4528,2.963
22.7260,-1.0274,-0.4947,-1.8207,2.148
22.7450,0.1989,-1.2659,-1.6621,2.099
22.7650,1.1466,-1.2148,-1.3172,2.127
22.7840,1.9749,-0.7937,-0.7444,2.255
22.8030,2.6113,-0.2659,-0.1306,2.628
22.8230,3.0688,0.2976,0.2396,3.092
22.8420,3.3366,0.5977,0.2098,3.396
22.8620,3.6492,0.7432,-0.0866,3.725
22.8810,3.8718,1.1193,-0.1800,4.034
22.9000,3.8879,1.6483,-0.1284,4.225
22.9200,3.6817,2.1945,-0.0650,4.287
22.9430,3.2731,2.9529,0.1133,4.410
22.9590,2.6342,3.9884,0.5417,4.810
22.9780,1.5735,5.0426,0.8792,5.355
22.9980,0.5282,5.4018,0.5250,5.453
23.0170,0.1889,5.2428,-0.2433,5.252
23.0370,-0.0759,4.9854,-0.6548,5.029
23.0560,-0.5616,4.6758,-0.5241,4.738
23.0750,-1.4946,4.8256,0.1662,5.055
23.0950,-2.1522,4.8328,0.8363,5.356
23.1140,-2.0676,3.4778,1.0775,4.187
23.1340,-2.0738,2.2954,0.8804,3.216
23.1530,-2.6469,1.2792,0.4058,2.968
23.1770,-3.0063,0.3706,-0.0382,3.029
23.2120,-2.6606,-0.0494,-0.1173,2.664
23.2130,-1.8739,0.0809,0.1281,1.880
23.2350,-0.6198,-0.1417,0.0839,0.641
23.2500,0.7719,-0.9213,-0.3160,1.243
23.2690,1.9918,-1.8609,-0.6348,2.799
23.2950,2.7392,-2.4948,-0.6790,3.767
23.3320,3.0000,-2.8393,-0.4652,4.157
23.3320,3.0388,-3.3181,-0.1118,4.501
23.3470,2.9662,-3.2803,0.2564,4.430
23.3660,2.5587,-2.6842,0.3944,3.729
23.3860,2.0174,-2.4677,0.2243,3.195
23.4050,1.2403,-2.5596,-0.1864,2.850
23.4250,0.4589,-2.5799,-0.4829,2.665
23.4440,-0.2310,-2.3949,-0.5800,2.475
23.4630,-1.0852,-1.5547,-0.3538,1.929
23.4820,-2.0691,-0.6096,0.0158,2.157
23.5020,-2.9309,0.0025,0.3423,2.951
23.5230,-3.6012,-0.0630,0.2930,3.614
23.5410,-3.8630,-0.5150,-0.0550,3.898
23.5650,-3.8898,-0.5217,-0.5060,3.957
23.5790,-4.0474,0.3628,-0.1009,4.065
23.5990,-3.9108,0.7833,0.5900,4.032
23.6190,-3.7200,0.1880,1.1961,3.912
23.6380,-3.8435,-0.3013,1.0486,3.995
23.6630,-4.1385,0.1204,0.4219,4.162
23.6770,-4.5845,1.1318,-0.2995,4.732
23.6960,-4.2903,1.4850,-1.2397,4.706
23.7160,-3.1612,0.6483,-2.0825,3.841
23.7370,-1.5875,-0.6686,-2.4940,3.031
23.7540,-0.1787,-1.5548,-2.3696,2.840
23.7730,0.8904,-1.6421,-1.6404,2.486
23.7930,1.9055,-1.3037,-0.5829,2.381
23.8120,2.7240,-0.8401,0.1729,2.856
23.8310,3.2730,-0.2280,0.4467,3.311
23.8510,3.5338,0.4950,0.2667,3.578
23.8700,3.8606,0.9492,-0.0129,3.976
23.8900,4.2071,1.2612,-0.1626,4.395
23.9100,4.3123,1.6488,-0.1723,4.620
23.9290,3.9669,2.1678,-0.0152,4.521
23.9490,3.4765,2.7630,0.2679,4.449
23.9670,2.5994,3.9737,0.6733,4.796
23.9860,1.4270,5.2495,1.0127,5.533
24.0060,0.6077,5.9692,0.9283,6.071
24.0270,0.1824,5.8868,0.1974,5.893
24.0460,-0.3983,5.5526,-0.7255,5.614
24.0640,-1.4194,5.4592,-1.2797,5.784
24.0840,-2.7759,6.0593,-1.1616,6.765
24.1030,-3.0908,5.5007,-0.7001,6.348
24.1230,-2.7902,3.6398,-0.1590,4.589
24.1420,-2.1726,1.7392,0.4771,2.824
24.1620,-2.0729,0.9027,1.0685,2.501
24.1820,-1.8881,0.2195,1.2222,2.260
24.2000,-1.0825,-0.1545,1.0137,1.491
24.2200,0.0341,-0.4180,0.6421,0.767
24.2390,1.2752,-0.7847,0.1585,1.506
24.2590,2.3386,-1.3016,-0.3776,2.703
24.2780,3.0994,-1.8225,-0.8214,3.688
24.2980,3.5910,-2.3938,-1.0392,4.439
24.3160,3.6079,-2.6957,-0.9627,4.605
24.3360,3.3552,-2.7269,-0.7436,4.387
24.3560,3.1216,-2.5959,-0.3725,4.077
24.3750,2.6523,-2.1428,0.1799,3.414
24.3960,1.8203,-1.5877,0.5419,2.475
24.4140,1.0875,-1.6438,0.5374,2.043
24.4370,0.2833,-1.6114,0.2815,1.660
24.4530,-0.6609,-1.4073,0.0522,1.556
24.4710,-1.6185,-0.9761,-0.0190,1.890
24.4920,-2.6199,-0.1856,0.2286,2.636
24.5130,-3.5576,0.5179,0.6091,3.646
24.5310,-4.0906,0.5404,0.7513,4.194
24.5500,-4.1156,0.1854,0.5980,4.163
24.5780,-4.4112,0.4931,0.4021,4.457
24.5880,-4.4245,0.6188,0.4105,4.486
24.6070,-3.8816,-0.2244,0.7900,3.967
24.6270,-3.5546,-1.1389,1.4624,4.009
24.6470,-3.7371,-1.0456,1.6804,4.229
24.6660,-4.0853,-0.1833,1.3535,4.308
24.6850,-4.4171,1.0393,0.9570,4.638
24.7040,-3.9869,1.3805,0.0538,4.219
24.7240,-2.8762,0.4343,-0.7891,3.014
24.7430,-1.6156,-0.6810,-1.5367,2.331
24.7630,-0.4037,-1.6763,-1.9558,2.607
24.7940,0.4728,-2.0489,-2.0398,2.930
24.8010,1.1468,-1.7970,-1.7681,2.770
24.8210,1.8204,-1.1404,-1.3332,2.528
24.8400,2.3869,-0.2793,-1.1089,2.647
24.8600,2.9520,0.3472,-0.8948,3.104
24.8790,3.3644,0.9892,-0.6965,3.575
24.9010,3.6163,1.5753,-0.5362,3.981
24.9180,3.7728,2.0606,-0.4642,4.324
24.9370,3.7969,2.5942,-0.5001,4.626
24.9580,3.4454,3.4903,-0.5644,4.937
24.9760,2.6411,4.5258,-0.7547,5.294
24.9960,1.7080,5.6583,-0.7630,5.960
25.0180,1.2181,6.3195,-0.4699,6.453
25.0340,1.3424,5.9785,-0.1433,6.129
25.0530,1.0791,5.2728,-0.0676,5.382
25.0730,0.4761,4.7939,-0.2258,4.823
25.0920,0.0187,4.5501,0.3701,4.565
25.1120,-0.7627,4.6186,1.8933,5.050
25.1310,-1.1991,3.7695,3.0029,4.966
25.1510,-1.9225,2.5977,3.2241,4.565
25.1700,-2.6983,1.4061,2.1024,3.698
25.1900,-2.9161,0.3834,0.5920,3.000
25.2130,-2.9128,0.0969,-0.5491,2.966
25.2280,-2.4467,-0.1272,-0.9924,2.643
25.2480,-1.6079,-0.6265,-1.3263,2.176
25.2670,-0.3606,-1.5867,-1.8614,2.472
25.2900,0.9520,-2.7117,-2.2264,3.635
25.3050,1.8055,-3.4582,-2.1779,4.468
25.3250,2.4643,-3.7157,-1.7429,4.787
25.3450,2.8401,-3.3691,-0.9714,4.512
25.3640,3.1464,-2.8007,-0.0219,4.212
25.3830,3.0703,-2.0746,0.4681,3.735
25.4020,2.5053,-1.3881,0.6489,2.937
25.4220,1.7071,-1.1305,0.5838,2.129
25.4410,0.7535,-1.2421,0.3143,1.486
25.4610,-0.1741,-1.5086,0.0189,1.519
25.4800,-0.9470,-1.0690,0.0949,1.431
25.4990,-1.6615,-0.0260,0.5292,1.744
25.5190,-2.3540,0.9493,1.0875,2.761
25.5380,-3.0683,1.2842,1.2506,3.554
25.5580,-3.4329,0.6737,0.8475,3.600
25.5860,-3.8610,0.4170,0.3923,3.903
25.5960,-3.9565,0.3353,0.1970,3.976
25.6160,-3.6409,-0.1243,0.3980,3.665
25.6350,-3.2514,-1.1804,0.9691,3.592
25.6550,-3.5499,-1.6140,1.3703,4.133
25.6780,-4.2256,-1.4526,1.3349,4.663
25.7080,-4.6830,-1.0603,0.9228,4.889
25.7130,-4.6041,-0.4887,-0.1413,4.632
25.7330,-3.8973,-0.3113,-1.6204,4.232
25.7520,-2.4460,-0.7804,-2.7925,3.793
25.7720,-0.8854,-1.4513,-2.9975,3.446
25.7990,0.3063,-1.6906,-2.4901,3.025
25.8290,1.1869,-1.4489,-1.7283,2.549
25.8290,2.1590,-1.0750,-0.8899,2.571
25.8490,2.8545,-0.5732,-0.1307,2.914
25.8690,3.2588,0.0102,0.1182,3.261
25.8880,3.5666,0.4202,-0.0467,3.592
25.9070,3.7439,0.8201,-0.2534,3.841
25.9270,3.8210,1.0873,-0.4680,4.000
25.9510,3.7217,1.4817,-0.6758,4.062
25.9650,3.2512,2.3116,-0.7119,4.052
25.9850,2.4143,3.3748,-0.3522,4.164
26.0040,1.2144,4.5505,0.1538,4.712
26.0240,-0.0873,5.4083,0.3580,5.421
26.0430,-0.7904,5.4271,0.2364,5.489
26.0620,-0.2556,4.4454,-0.2849,4.462
26.0820,-0.3644,4.1854,-0.3425,4.215
26.1010,-0.6029,4.3981,-0.2772,4.448
26.1200,-0.7826,4.5856,0.0988,4.653
26.1400,-0.5178,3.7560,0.5531,3.832
26.1590,-0.3657,2.4234,0.8626,2.598
26.1780,-0.5945,1.6619,0.7435,1.915
26.1980,-1.2689,1.6697,0.5426,2.166
26.2170,-1.5124,1.5239,0.4238,2.188
26.2370,-1.2210,1.1566,0.1432,1.688
26.2560,-0.4002,0.4405,-0.6203,0.860
26.2760,0.7122,-0.6624,-1.4339,1.733
26.2950,1.5542,-1.7930,-1.9970,3.101
26.3160,2.3491,-2.7310,-2.0042,4.122
26.3330,2.9006,-3.0935,-1.3230,4.442
26.3530,3.1181,-2.8523,-0.4326,4.248
26.3730,3.1254,-2.5149,0.4031,4.032
26.3930,3.0787,-2.2855,0.8508,3.928
26.4120,2.4955,-1.9966,0.8515,3.307
26.4310,1.8902,-2.0818,0.5936,2.874
26.4550,1.1424,-2.1989,0.4618,2.521
26.4700,0.2558,-2.0843,0.4466,2.147
26.4890,-0.6469,-1.6837,0.4709,1.864
26.5080,-1.5323,-0.7870,0.7242,1.869
26.5280,-2.5356,0.4967,1.0356,2.784
26.5470,-3.4266,1.2966,1.0371,3.808
26.5670,-3.7059,0.9127,0.7967,3.899
26.5860,-3.9334,0.3898,0.6317,4.003
26.6060,-4.3288,0.5913,0.9719,4.476
26.6250,-4.6030,0.8991,1.3092,4.869
26.6450,-4.5284,0.0156,1.4569,4.757
26.6710,-4.4620,-1.2532,1.2186,4.792
26.6830,-4.5073,-1.5821,0.6113,4.816
26.7020,-4.7762,-1.0546,0.0790,4.892
26.7230,-4.9620,0.1773,-0.5572,4.996
26.7410,-4.3804,0.9071,-1.1948,4.630
26.7610,-2.7772,0.4519,-2.0197,3.464
26.7800,-1.1126,-0.4406,-2.3506,2.638
26.7990,0.2480,-1.1855,-2.0683,2.397
26.8190,1.2374,-1.3470,-1.4619,2.341
26.8380,2.0612,-1.1349,-0.8429,2.499
26.8570,2.8003,-0.7868,-0.3903,2.935
26.8780,3.3461,-0.2688,-0.2601,3.367
26.8970,3.8188,0.3070,-0.3160,3.844
26.9160,4.2034,0.8369,-0.4482,4.309
26.9420,4.3846,1.4707,-0.6325,4.668
26.9540,4.2677,2.3489,-0.7727,4.932
26.9740,3.9626,3.3082,-0.7420,5.215
26.9930,3.3228,4.2656,-0.4541,5.426
27.0130,2.4150,5.3190,-0.2034,5.845
27.0320,1.4825,6.2504,-0.2114,6.427
27.0530,0.8762,6.6074,-0.8998,6.726
27.0760,0.7570,6.0423,-1.8287,6.358
27.0900,0.3112,5.8326,-2.2895,6.274
27.1090,-0.4340,5.7363,-2.0026,6.091
27.1300,-1.1293,5.7445,-1.2953,5.996
27.1490,-1.2147,4.6332,0.1251,4.791
27.1680,-1.2619,2.6582,1.5798,3.340
27.1900,-1.5674,1.0052,2.2581,2.927
27.2100,-2.3219,0.3026,2.3448,3.314
27.2260,-2.6561,0.2067,1.7767,3.202
27.2460,-2.0418,-0.1548,0.8017,2.199
27.2640,-1.0454,-0.7740,-0.0869,1.304
27.2870,0.0426,-1.5249,-0.9340,1.789
27.3030,1.0128,-2.4492,-1.6491,3.122
27.3230,1.7050,-3.2945,-1.5578,4.023
27.3430,2.0863,-3.7203,-0.9331,4.366
27.3620,2.3806,-3.8421,-0.4191,4.539
27.3820,2.3978,-3.5146,0.1622,4.258
27.4170,2.0970,-3.1397,0.8691,3.874
27.4200,1.5763,-3.0516,1.2894,3.669
27.4390,0.8676,-3.2643,1.2408,3.598
27.4590,0.0549,-3.4875,0.7977,3.578
27.4790,-0.7025,-3.4842,0.4170,3.579
27.5030,-1.3254,-3.2400,0.1858,3.506
27.5350,-2.0557,-2.3770,0.2072,3.149
27.5370,-3.1120,-1.0082,0.4294,3.299
27.5550,-4.2688,0.0396,0.7299,4.331
27.5750,-4.4742,0.1074,0.0737,4.476
27.5940,-4.6123,0.2707,-0.4341,4.641
27.6140,-4.6032,0.8442,-0.7128,4.734
27.6340,-3.5151,0.5597,-0.6258,3.614
27.6610,-2.5835,-0.2510,0.2864,2.611
27.6720,-2.5474,-0.5821,1.4342,2.981
27.6920,-3.1005,0.1573,2.2201,3.817
27.7110,-3.5838,1.3294,2.5296,4.584
27.7300,-3.7685,2.3355,2.1137,4.912
27.7500,-3.4891,2.6571,0.6693,4.436
27.7690,-2.8035,2.2282,-1.2833,3.804
27.7880,-1.4144,0.9916,-3.0928,3.542
27.8070,0.1255,-0.2805,-3.7447,3.757
27.8290,1.0087,-0.9191,-3.3253,3.594
27.8490,1.8506,-0.9033,-2.4519,3.202
27.8720,2.7350,-0.5232,-1.3521,3.095
27.8850,3.3989,0.0312,-0.4554,3.429
27.9050,3.9735,0.4613,0.0390,4.000
27.9240,4.5021,0.7646,0.2395,4.573
27.9440,4.8804,1.0962,0.1704,5.005
27.9630,4.9831,1.7712,-0.0453,5.289
27.9820,4.8067,2.5501,-0.5230,5.466
28.0020,4.3707,3.5932,-0.8117,5.716
28.0210,3.4957,4.9931,-0.9132,6.163
28.0410,2.2177,6.4822,-0.8979,6.910
28.0610,1.1291,7.1799,-1.1149,7.353
28.0840,0.2477,6.9344,-1.8465,7.180
28.0980,-0.5215,6.1391,-2.4169,6.618
28.1190,-1.2686,5.6651,-2.5836,6.354
28.1380,-1.5667,5.1992,-1.3500,5.595
28.1570,-1.5552,4.9448,0.9500,5.270
28.1770,-1.1164,3.8464,2.6516,4.803
28.1980,-1.4400,2.4015,3.4426,4.438
28.2150,-2.4521,1.3955,2.8878,4.037
28.2350,-3.4484,0.5722,1.9826,4.019
28.2540,-3.5712,0.0213,1.1349,3.747
28.2730,-2.7096,-0.2259,0.3434,2.741
28.2930,-1.7737,-0.6840,-0.2083,1.912
28.3130,-0.4445,-1.9456,-0.6255,2.091
28.3340,0.8346,-3.1788,-0.8163,3.386
28.3510,1.5351,-3.8691,-0.8793,4.254
28.3700,1.8209,-4.3387,-0.6231,4.746
28.3900,1.9698,-4.6046,-0.2686,5.015
28.4100,2.0273,-4.6498,0.0023,5.073
28.4290,1.6536,-4.2634,0.0392,4.573
28.4520,0.9236,-3.6631,-0.1000,3.779
28.4890,0.1817,-3.3020,-0.2944,3.320
28.4900,-0.4325,-3.2161,-0.5528,3.292
28.5060,-0.9470,-3.3076,-0.7314,3.517
28.5250,-1.5007,-3.1491,-0.8667,3.594
28.5450,-2.2659,-2.3914,-0.9336,3.424
28.5640,-3.0547,-1.1278,-0.7600,3.344
28.5840,-3.5997,-0.3234,-0.3868,3.635
28.6050,-3.8433,-0.4427,-0.0502,3.869
28.6430,-4.0638,-0.5940,-0.1766,4.111
28.6440,-4.4367,-0.2071,-0.2917,4.451
28.6610,-4.4398,0.2610,-0.2330,4.454
28.6810,-4.3461,0.1698,0.4464,4.372
28.7000,-4.5008,-0.3259,1.3313,4.705
28.7200,-4.7877,-0.3758,1.5584,5.049
28.7400,-5.1112,0.4934,1.1179,5.255
28.7770,-5.0986,1.6689,0.1274,5.366
28.7770,-4.4968,1.9631,-1.0530,5.018
28.7970,-3.2368,1.0057,-1.9591,3.915
28.8160,-1.4763,-0.5939,-2.3173,2.811
28.8360,-0.0581,-1.4907,-2.2005,2.658
28.8550,1.1360,-1.5982,-1.6501,2.563
28.8760,2.0608,-1.0066,-1.0710,2.531
28.9130,2.7248,-0.0402,-0.8382,2.851
28.9140,3.3728,0.8696,-0.9594,3.613
28.9340,4.0281,1.4447,-0.7747,4.349
28.9520,4.4685,2.0542,-0.3711,4.932
28.9720,4.7838,2.2798,-0.1287,5.301
28.9910,4.8221,2.5450,-0.1308,5.454
29.0260,4.2199,3.4225,0.0267,5.433
29.0290,3.2749,4.5111,0.3441,5.585
29.0490,2.1637,5.5590,0.6643,6.002
29.0690,1.1434,6.6076,0.1918,6.709
29.0880,0.9662,6.7324,-1.1944,6.905
29.1080,0.9367,6.3169,-2.4054,6.824
29.1260,0.3942,6.3850,-2.9960,7.064
29.1460,-0.3337,6.3907,-2.6918,6.943
29.1650,-0.7691,6.3498,-1.7421,6.629
29.1850,-0.7228,5.4310,-0.7631,5.532
29.2040,-1.0084,4.0679,-0.0402,4.191
29.2230,-1.6421,2.9471,0.7027,3.446
29.2440,-2.1934,1.8085,1.2954,3.124
29.2760,-2.7277,1.2884,1.4969,3.368
29.2820,-2.6622,0.9226,0.6938,2.902
29.3010,-2.0476,0.2618,-0.6019,2.150
29.3210,-1.0005,-0.7908,-1.6967,2.123
29.3410,0.2521,-2.2898,-1.8594,2.960
29.3600,1.2733,-3.2602,-1.1581,3.687
29.3800,2.2506,-3.4306,-0.1125,4.104
29.4230,2.7322,-3.0719,0.6008,4.155
29.4240,2.4886,-2.2456,1.4090,3.636
29.4370,2.0991,-1.8673,1.7287,3.299
29.4560,1.6806,-2.1329,1.6727,3.189
29.4780,1.1979,-2.5660,1.4564,3.184
29.4960,0.6149,-3.1156,1.1895,3.391
29.5410,-0.0800,-3.3970,0.9509,3.528
29.5410,-0.8412,-3.1814,0.9317,3.420
29.5540,-1.6835,-2.4117,1.0917,3.137
29.5720,-2.7806,-1.1598,1.3578,3.305
29.5990,-3.9559,-0.0439,1.5372,4.244
29.6380,-4.5402,-0.1001,1.2694,4.715
29.6380,-4.4984,-0.7512,0.7886,4.628
29.6500,-4.3714,-0.9509,0.2061,4.478
29.6700,-4.1425,-0.7509,-0.2265,4.216
29.6960,-3.6810,-0.9847,0.1673,3.814
29.7350,-3.4040,-1.2850,1.2204,3.838
29.7360,-3.6447,-0.8343,2.1133,4.295
29.7480,-4.1249,0.1170,2.3115,4.730
29.7660,-4.4495,0.9907,1.7429,4.880
29.7870,-4.2317,1.1748,0.2404,4.398
29.8060,-3.5443,0.7067,-1.4212,3.883
29.8290,-2.2477,-0.1820,-2.5020,3.368
29.8660,-0.6272,-1.2649,-2.9795,3.297
29.8660,0.4726,-1.5145,-2.5927,3.040
29.8830,1.2480,-1.1764,-1.7609,2.458
29.9030,2.0367,-0.5948,-0.9560,2.327
29.9220,2.7181,0.1374,-0.3925,2.750
29.9420,3.2571,0.7995,-0.1113,3.356
29.9610,3.7457,1.2898,-0.0547,3.962
29.9810,4.1246,1.6664,-0.1908,4.453
30.0180,4.2660,2.1919,-0.3876,4.812
30.0190,4.1670,2.8621,-0.4393,5.074
30.0380,3.8395,3.5269,-0.2642,5.220
30.0570,3.3258,4.2708,0.0205,5.413
30.0780,2.4997,5.2701,0.1366,5.834
30.0970,1.4683,6.2041,-0.2052,6.379
30.1170,0.9736,6.0823,-1.1533,6.267
30.1610,0.3483,5.6771,-2.0293,6.039
30.1610,-0.3323,5.5388,-2.4385,6.061
30.1750,-1.2151,5.7895,-1.9665,6.234
30.1930,-1.7694,6.3433,-0.8221,6.637
30.2160,-1.3524,4.6268,0.1196,4.822
30.2330,-1.2826,2.8355,1.0447,3.283
30.2520,-1.6143,1.2872,1.0179,2.302
30.2880,-2.2014,0.5856,1.1419,2.548
30.2900,-2.4114,0.3995,1.3635,2.799
30.3100,-1.9149,0.0851,1.2231,2.274
30.3290,-0.9973,-0.6132,0.5813,1.307
30.3480,0.0337,-1.6120,-0.1810,1.622
30.3710,0.8066,-2.7062,-0.8493,2.949
30.4020,1.3932,-3.7621,-1.1447,4.172
30.4070,1.7351,-4.2552,-0.8610,4.675
30.4260,1.6529,-4.3956,-0.1452,4.698
30.4460,1.6399,-4.4871,0.5080,4.804
30.4650,1.1481,-3.9378,0.7192,4.164
30.4850,0.4972,-3.4538,0.7807,3.576
30.5070,0.0065,-3.4541,0.7529,3.535
30.5470,-0.5274,-3.7180,0.5472,3.795
30.5470,-1.2298,-3.7004,0.3246,3.913
30.5620,-1.8915,-3.3048,0.3373,3.823
30.5820,-2.6234,-2.6132,0.6536,3.760
30.6180,-3.6955,-1.7290,1.1479,4.238
30.6200,-4.8827,-0.9876,1.3011,5.149
30.6410,-5.2612,-1.0136,0.7438,5.409
30.6590,-4.7426,-1.2586,0.0111,4.907
30.6780,-4.4959,-0.1200,-0.5834,4.535
30.6980,-3.6676,0.8919,-1.0191,3.910
30.7220,-2.7717,1.0235,-0.0536,2.955
30.7360,-2.6222,0.8692,1.3844,3.090
30.7570,-2.9362,1.3678,2.0103,3.812
30.7760,-3.4426,2.4211,1.8727,4.607
30.7960,-3.3516,3.2098,1.1375,4.778
30.8140,-2.8145,3.0943,-0.0855,4.184
30.8360,-2.1171,2.1709,-1.4482,3.360
30.8560,-0.9488,0.6404,-2.5302,2.777
30.8740,0.4898,-0.7645,-3.1103,3.240
30.8910,1.5969,-1.4423,-2.9946,3.688
30.9110,2.3692,-1.3597,-2.2297,3.526
30.9310,3.0096,-0.7088,-1.4678,3.423
30.9570,3.5671,0.1036,-1.0506,3.720
30.9970,4.0639,0.7887,-0.7507,4.207
30.9980,4.4157,1.2137,-0.5549,4.613
31.0100,4.5045,1.6295,-0.6045,4.828
31.0280,4.4134,1.9652,-0.7009,4.882
31.0470,4.0707,2.4158,-0.6569,4.779
31.0660,3.5776,2.8935,-0.4817,4.626
31.0870,2.9085,3.5664,-0.2257,4.608
31.1150,1.9173,4.6021,-0.1783,4.989
31.1240,1.1129,5.2302,-0.5457,5.375
31.1430,0.6134,4.9357,-1.0958,5.093
31.1640,-0.3309,4.9461,-1.6120,5.213
31.1830,-1.3043,5.1443,-1.7068,5.575
31.2030,-2.3138,5.5961,-1.4106,6.218
31.2300,-2.5360,5.1933,-0.1083,5.780
31.2410,-2.0901,3.9477,1.8678,4.842
31.2610,-2.4969,2.1737,3.2738,4.656
31.2800,-3.2409,-0.1734,2.9760,4.403
31.3000,-3.1013,-2.3696,1.6168,4.225
31.3180,-2.1503,-2.8485,0.5441,3.610
31.3380,-1.1392,-2.2496,-0.2061,2.530
31.3590,-0.0092,-1.8010,-0.9129,2.019
31.3780,0.9806,-2.3270,-1.5146,2.945
31.3960,1.6310,-3.4359,-1.8109,4.212
31.4170,1.9066,-4.2077,-1.8201,4.965
31.4350,1.9081,-4.2388,-1.2214,4.806
31.4580,1.7115,-3.9356,-0.3915,4.309
31.4990,1.4433,-3.3758,0.4792,3.703
31.4990,1.2039,-2.8244,1.1909,3.293
31.5130,0.7538,-2.5049,1.4758,3.003
31.5310,0.1336,-2.3528,1.5396,2.815
31.5510,-0.5002,-2.1018,1.5251,2.645
31.5710,-1.1746,-1.6855,1.5105,2.550
31.5910,-1.8031,-1.2408,1.4450,2.623
31.6110,-2.3573,-0.5386,1.2630,2.728
31.6490,-2.7442,0.0291,0.9175,2.894
31.6500,-2.8304,0.0701,0.5954,2.893
31.6670,-3.0361,0.5344,0.3493,3.103
31.6870,-3.2694,1.4833,0.3725,3.609
31.7070,-3.3353,2.2597,0.7355,4.095
31.7270,-3.2277,1.9000,1.2370,3.944
31.7480,-3.1667,0.4330,1.8986,3.718
31.7790,-3.2925,-0.5386,2.0789,3.931
31.7840,-3.5572,-0.0585,1.8351,4.003
31.8030,-3.6011,1.2031,1.2651,4.002
31.8220,-3.3695,2.0303,0.5029,3.966
31.8420,-2.6638,1.5635,-0.8282,3.198
31.8630,-1.5100,0.1752,-1.9945,2.508
31.9080,-0.0712,-1.2686,-2.3945,2.711
31.9080,1.0027,-1.9025,-2.0198,2.950
31.9200,1.9728,-2.0222,-1.1948,3.067
31.9400,2.6075,-1.7085,-0.6446,3.183
31.9590,3.0153,-1.1908,-0.4544,3.274
31.9800,3.0928,-0.5515,-0.6769,3.214
31.9990,3.0166,0.1760,-1.2618,3.275
32.0200,3.1322,0.7440,-1.9988,3.789
32.0570,3.1904,1.2317,-2.4476,4.206
32.0580,3.0724,1.7629,-2.5947,4.391
32.0760,3.0565,2.1984,-2.4013,4.466
32.0950,2.2950,3.3589,-1.9714,4.521
32.1140,1.2616,4.8285,-1.5045,5.212
32.1330,0.4140,5.8615,-1.1938,5.996
32.1530,0.0107,5.9851,-0.9796,6.065
32.1830,-0.2986,5.4165,-0.8078,5.485
32.1910,-0.6957,4.7316,-0.8098,4.851
32.2100,-1.4557,4.6724,-0.9177,4.979
32.2310,-1.7074,4.1519,-1.0910,4.620
32.2500,-1.7477,3.3848,-0.5915,3.855
32.2690,-1.8112,2.8418,0.6638,3.435
32.2890,-1.8859,2.2469,2.2291,3.684
32.3170,-1.6668,1.0829,3.3884,3.928
32.3270,-0.9546,-0.3906,3.1283,3.294
32.3460,-0.3816,-1.1621,1.4793,1.920
32.3660,0.2532,-1.7266,-0.2095,1.758
32.3860,1.2009,-2.5491,-1.6858,3.284
32.4050,2.2691,-3.2495,-2.2776,4.571
32.4250,2.4310,-3.5763,-1.5247,4.585
32.4560,2.4185,-3.7414,-0.8001,4.526
32.4620,2.5326,-4.0916,0.0128,4.812
32.4820,2.4448,-3.8362,0.7337,4.608
32.5020,2.0105,-3.2004,1.3849,4.025
32.5220,1.3150,-2.8645,1.4059,3.451
32.5400,0.5227,-2.8196,1.3070,3.151
32.5600,-0.3245,-2.7781,1.1615,3.029
32.5790,-1.2012,-2.3226,1.1269,2.847
32.6080,-2.0071,-1.6465,1.2248,2.870
32.6180,-3.1353,-0.4483,1.4940,3.502
32.6380,-4.2082,0.4675,1.7072,4.565
32.6570,-5.0570,0.4960,1.8544,5.409
32.6780,-5.4974,0.1532,1.8602,5.806
32.6960,-5.7789,0.5268,1.5211,5.999
32.7170,-5.3422,0.4060,1.2234,5.496
32.7460,-4.5824,-0.8151,1.6523,4.939
32.7530,-4.2531,-1.2990,1.9901,4.872
32.7730,-4.3908,-0.3096,1.0369,4.522
32.7930,-4.5811,1.3761,-0.3927,4.799
32.8130,-4.3555,2.5897,-1.1775,5.202
32.8410,-3.1806,2.1146,-1.9300,4.279
32.8510,-1.3883,0.5627,-2.5206,2.932
32.8700,0.3089,-1.0785,-2.7362,2.957
32.8910,1.6632,-1.9573,-2.4138,3.525
32.9090,2.7226,-2.1135,-1.8172,3.896
32.9280,3.4587,-1.8052,-1.0781,4.048
32.9540,4.0245,-1.1073,-0.3168,4.186
32.9970,4.2539,-0.0814,0.3100,4.266
32.9970,4.2389,1.1482,0.4463,4.414
33.0070,4.2062,2.0086,0.3655,4.675
33.0260,4.1381,2.5447,0.0791,4.859
33.0460,3.8001,3.0268,-0.2817,4.866
33.0640,3.1197,3.4372,-0.5406,4.673
33.0910,2.2737,3.8612,-0.6090,4.522
33.1250,1.3668,4.6379,-0.6530,4.879
33.1260,0.5667,5.6692,-0.9570,5.777
33.1430,0.3648,5.8455,-1.6485,6.084
33.1620,-0.1670,5.8719,-1.9730,6.197
33.1810,-0.9935,6.1687,-1.8775,6.524
33.2050,-2.1939,6.4471,-1.5967,6.995
33.2390,-2.3860,5.5591,-1.3957,6.208
33.2390,-2.0203,3.2066,-0.5944,3.836
33.2580,-1.9369,1.0120,0.2150,2.196
33.2780,-2.2341,-0.1863,0.8578,2.400
33.2980,-2.3318,-0.5777,1.3383,2.750
33.3220,-1.6935,-0.4615,0.9999,2.020
33.3610,-1.0101,-0.1335,0.7130,1.244
33.3610,-0.2419,-0.6288,-0.6201,0.916
33.3740,0.9372,-2.2558,-1.9132,3.103
33.3930,1.4378,-3.5647,-2.3424,4.501
33.4140,1.8274,-4.2267,-1.5602,4.862
33.4330,2.2256,-4.5014,-0.2779,5.029
33.4570,2.4446,-4.2951,0.6316,4.982
33.5010,2.1862,-3.5831,0.7416,4.262
33.5010,1.4403,-2.8029,-0.1057,3.153
33.5110,0.8783,-3.2105,0.6487,3.391
33.5290,-0.0023,-2.9403,1.1122,3.144
33.5490,-0.4079,-3.2526,1.0073,3.429
33.5690,-1.0383,-2.7992,0.8641,3.108
33.5880,-1.8176,-2.1180,0.8066,2.905
33.6080,-2.9924,-0.8577,1.0301,3.279
33.6570,-4.1328,0.4403,0.8744,4.247
33.6570,-4.4210,0.3702,0.3609,4.451
33.6650,-4.1763,-0.4549,0.1567,4.204
33.6840,-4.2095,0.1900,0.1503,4.216
33.7050,-3.9736,1.2276,0.3822,4.176
33.7350,-3.2006,0.3746,1.1148,3.410
33.7430,-2.9507,-0.6589,1.6957,3.466
33.7620,-3.3664,-0.3182,1.5387,3.715
33.7830,-4.1653,1.0746,1.2430,4.478
33.8010,-4.4574,2.1072,0.8556,5.004
33.8210,-3.9310,2.0663,-0.0216,4.441
33.8500,-2.7754,1.1315,-0.9824,3.154
33.8590,-1.4523,-0.2698,-1.6334,2.202
33.8800,-0.1989,-1.5175,-2.0379,2.549
33.8980,0.9107,-2.0271,-1.9995,2.989
33.9190,1.8404,-1.7507,-1.4537,2.927
33.9370,2.3760,-0.7242,-0.7562,2.596
33.9570,3.0220,0.1485,-0.4600,3.060
33.9850,3.6358,0.8765,-0.4068,3.762
33.9950,4.2387,1.3727,-0.5165,4.485
34.0140,4.7253,1.7133,-0.7542,5.083
34.0340,4.9134,2.0650,-0.9300,5.410
34.0540,4.6931,2.6300,-1.0591,5.483
34.0730,4.3712,3.2944,-1.0637,5.576
34.0930,3.6493,4.1786,-0.7886,5.604
34.1240,2.7519,5.2843,-0.9260,6.029
34.1310,1.8096,6.2235,-0.7609,6.526
34.1500,1.6672,6.1732,-1.1414,6.495
34.1700,1.1234,5.6647,-1.2340,5.905
34.1890,0.2491,5.3894,-1.2553,5.539
34.2090,-0.9046,5.1859,-1.1612,5.391
34.2350,-1.5290,4.4597,-0.8936,4.798
34.2750,-1.6087,3.2801,-0.2335,3.661
34.2760,-1.6095,2.5504,0.2885,3.030
34.2860,-1.9217,2.3842,0.5529,3.112
34.3050,-2.3318,2.4498,0.9206,3.505
34.3250,-2.3265,2.1965,1.2107,3.421
34.3440,-1.9768,1.3117,1.3552,2.732
34.3640,-1.1856,-0.3143,1.0906,1.641
34.3830,-0.4148,-2.2351,0.5259,2.333
34.4290,0.3221,-3.9819,0.0357,3.995
34.4290,0.8704,-5.0723,-0.2221,5.151
34.4410,1.2140,-5.3610,-0.3444,5.508
34.4610,1.3827,-4.8961,-0.1314,5.089
34.4800,1.2478,-4.1525,0.4423,4.358
34.5020,0.9064,-3.6974,0.7872,3.887
34.5200,0.6874,-3.8995,0.9653,4.076
34.5590,0.3890,-4.2689,1.0727,4.419
34.5590,-0.4185,-4.0453,1.2656,4.259
34.5770,-1.4195,-3.1627,1.1587,3.655
34.5960,-2.2878,-2.1160,0.9962,3.272
34.6160,-3.1770,-1.1072,0.9441,3.494
34.6350,-4.1248,-0.2811,0.6918,4.192
34.6600,-4.5021,-0.1189,0.2036,4.508
34.6910,-4.6381,-0.1038,-0.5717,4.674
34.6930,-4.8207,0.5401,-0.8942,4.933
34.7120,-5.3012,1.7039,-0.4327,5.585
34.7320,-4.9828,1.7265,0.5354,5.301
34.7520,-4.1338,-0.0205,1.4228,4.372
34.7710,-3.3511,-1.6644,1.6366,4.084
34.7910,-3.3442,-0.9469,0.9826,3.612
34.8240,-3.8864,1.1994,0.3524,4.083
34.8290,-3.6744,2.6925,-0.4616,4.579
34.8480,-2.5683,2.7963,-1.5106,4.086
34.8690,-1.0570,1.7116,-2.2946,3.052
34.8870,0.4851,0.1760,-2.3328,2.389
34.9070,1.5374,-0.6557,-1.7766,2.439
34.9260,2.3740,-0.7487,-0.8992,2.647
34.9460,3.0801,-0.3744,0.0225,3.103
34.9810,3.6302,0.2219,0.5944,3.685
34.9840,4.2217,0.7717,0.7159,4.351
35.0040,4.4971,1.6739,0.7595,4.858
35.0230,4.7197,2.5306,0.2144,5.360
35.0430,4.8474,3.1548,-0.3674,5.795
35.0620,4.6890,3.6104,-1.0296,6.007
35.0830,4.1066,4.2388,-1.5975,6.114
35.1170,3.5672,4.7559,-1.4768,6.126
35.1200,2.8651,5.5365,-0.3548,6.244
35.1400,2.0388,6.4064,0.7044,6.760
35.1600,1.8625,6.3618,0.8469,6.683
35.1790,1.4908,5.8566,0.5026,6.064
35.1980,0.8673,5.6752,0.1638,5.743
35.2180,-0.0946,5.7459,0.2104,5.751
35.2450,-1.0734,5.5438,0.6552,5.685
35.2560,-1.5493,4.3272,1.2279,4.757
35.2760,-2.1095,2.8882,1.4225,3.849
35.2940,-2.7978,1.5140,1.2349,3.412
35.3150,-3.3818,0.5251,0.4952,3.458
35.3450,-3.7378,0.1887,-0.2842,3.753
35.3520,-3.4875,-0.0725,-0.8261,3.585
35.3720,-2.7781,-0.5410,-1.0913,3.033
35.3920,-1.7946,-1.6643,-1.2898,2.767
35.4110,-0.8658,-3.1945,-1.5104,3.638
35.4300,-0.0537,-4.5905,-1.4256,4.807
35.4500,0.6355,-5.5640,-0.9633,5.682
35.4790,1.0954,-5.8113,-0.5666,5.941
35.4880,1.1134,-5.0532,0.0722,5.175
35.5080,0.8967,-4.1547,0.3541,4.265
35.5280,0.7265,-3.5502,0.5506,3.665
35.5470,0.3320,-3.3056,0.4827,3.357
35.5670,-0.0690,-3.6485,0.2918,3.661
35.5910,-0.6289,-3.7105,0.1519,3.766
35.6340,-1.3598,-3.2397,0.2393,3.522
35.6350,-2.2729,-2.3695,0.7134,3.360
35.6440,-3.2593,-1.0259,1.1251,3.597
35.6630,-4.0116,0.0120,1.1908,4.185
35.6830,-4.4461,0.2828,0.9045,4.546
35.7020,-4.7888,0.6624,0.6091,4.873
35.7260,-5.0129,1.3254,0.3088,5.194
35.7670,-4.8441,1.2304,0.3881,5.013
35.7680,-4.5579,0.5173,0.9624,4.687
35.7800,-4.5549,0.5175,1.2290,4.746
35.7990,-4.5051,0.9689,1.1924,4.760
35.8180,-4.2318,1.6847,0.8557,4.635
35.8380,-3.4589,1.8715,0.1138,3.934
35.8570,-2.3751,1.2993,-0.8879,2.849
35.8770,-0.9683,0.0692,-1.7086,1.965
35.9200,0.2485,-0.9242,-1.9807,2.200
35.9210,1.0714,-1.1505,-1.7000,2.316
35.9340,1.8464,-0.8876,-0.9921,2.276
35.9540,2.6092,-0.4631,-0.2625,2.663
35.9740,3.3310,0.0950,0.3235,3.348
35.9940,3.9432,0.7786,0.6841,4.077
36.0130,4.4693,1.4782,0.7742,4.771
36.0570,4.8612,2.0772,0.6235,5.323
36.0580,4.9872,2.7482,0.3739,5.707
36.0700,4.7791,3.5484,0.0704,5.953
36.0900,4.4138,4.3484,-0.1749,6.198
36.1100,3.7386,5.3633,-0.2211,6.541
36.1290,2.7997,6.5153,-0.1507,7.093
36.1490,2.0173,7.1581,-0.3129,7.444
36.1680,1.6927,6.7956,-0.7305,7.041
36.2040,0.8588,6.6510,-0.8726,6.763
36.2060,-0.2198,6.7691,-0.9744,6.842
36.2250,-1.5148,7.0573,-0.5445,7.239
36.2460,-2.1481,6.4162,0.1347,6.768
36.2690,-2.2845,4.4464,0.9755,5.093
36.2840,-2.8386,2.4196,2.0426,4.253
36.3030,-3.3903,0.9011,2.5549,4.340
36.3360,-3.5599,0.4549,2.2120,4.216
36.3420,-3.1055,0.6880,1.2201,3.407
36.3620,-2.1894,0.4311,0.1448,2.236
36.3800,-1.4237,-0.5039,-0.8493,1.733
36.4030,-0.6663,-2.1477,-1.7967,2.878
36.4320,0.2312,-4.0773,-2.3477,4.711
36.4390,0.8125,-5.4016,-1.9274,5.792
36.4580,1.3356,-5.7631,-0.8877,5.982
36.4780,1.7096,-5.3302,0.0864,5.598
36.4980,1.6680,-4.3308,1.3497,4.833
36.5170,1.2704,-3.6527,1.6766,4.215
36.5430,0.7451,-3.5478,1.2352,3.830
36.5550,-0.0422,-3.3678,0.8130,3.465
36.5740,-0.9514,-3.1008,0.6229,3.303
36.5940,-1.7253,-2.8939,0.7124,3.444
36.6140,-2.4076,-2.5889,0.8636,3.639
36.6340,-3.2173,-1.6401,1.1949,3.804
36.6530,-4.2069,-0.4585,1.5991,4.524
36.6720,-5.0198,0.1506,1.7424,5.316
36.6920,-5.4326,-0.0332,1.6647,5.682
36.7220,-5.7520,0.0706,1.2781,5.893
36.7300,-5.6589,0.3866,0.9718,5.755
36.7500,-4.9457,0.1325,1.0409,5.056
36.7690,-3.9451,-0.9771,1.6346,4.381
36.7880,-3.1240,-1.5716,2.0345,4.046
36.8080,-2.8654,-0.8239,1.8857,3.528
36.8280,-3.0264,0.7905,1.4925,3.466
36.8610,-2.8867,2.1767,0.6969,3.682
36.8660,-1.9710,2.0852,-0.3730,2.893
36.8850,-0.5604,0.8399,-1.3047,1.650
36.9050,0.6110,-0.6110,-1.6414,1.855
36.9250,1.4178,-1.5563,-1.5751,2.629
36.9440,1.9743,-1.7671,-1.2460,2.928
36.9640,2.2807,-1.1761,-0.9793,2.747
37.0000,2.6290,-0.3780,-0.8820,2.799
37.0010,3.0333,0.3760,-1.0916,3.246
37.0220,3.4304,0.9684,-1.3375,3.807
37.0410,3.7547,1.4741,-1.4715,4.294
37.0600,3.9944,1.9796,-1.5063,4.706
37.0790,4.0645,2.5195,-1.4271,4.990
37.0990,3.7943,3.2457,-1.0936,5.111
37.1250,3.1225,4.3362,-0.6063,5.378
37.1400,2.3010,5.3076,-0.1106,5.786
37.1560,1.6237,5.8278,0.1064,6.051
37.1760,0.9549,5.8833,-0.2607,5.966
37.1960,0.0117,6.2189,-1.0727,6.311
37.2210,-1.0828,6.5658,-1.6288,6.851
37.2610,-1.8824,6.8808,-1.8739,7.376
37.2610,-2.2649,6.2200,-1.7380,6.844
37.2730,-2.1036,4.0482,-0.9448,4.659
37.2930,-2.0009,1.8567,0.2930,2.745
37.3120,-2.3391,0.6043,1.7459,2.981
37.3320,-2.2954,-0.0713,2.8655,3.672
37.3510,-1.1744,-0.2028,2.3745,2.657
37.3700,-0.2295,-0.2322,0.8792,0.938
37.3900,0.4992,-0.8081,-0.8225,1.256
37.4360,1.0106,-1.8868,-1.7333,2.754
37.4360,1.2891,-2.9411,-1.8413,3.702
37.4480,1.5506,-3.6721,-1.4144,4.230
37.4670,1.5485,-3.9971,-0.4402,4.309
37.4860,1.7789,-4.5423,0.5607,4.910
37.5110,1.8406,-4.4247,1.2197,4.945
37.5250,1.1162,-3.6043,1.3472,4.006
37.5440,0.3396,-3.0704,1.0799,3.272
37.5640,-0.2452,-3.2104,0.6644,3.288
37.5830,-0.8230,-3.5071,0.3607,3.620
37.6030,-1.4499,-3.4656,0.1345,3.759
37.6250,-2.2384,-2.5869,0.1257,3.423
37.6420,-3.1028,-1.1387,0.5891,3.357
37.6620,-3.8865,0.2195,0.8219,3.979
37.6800,-4.4201,0.8388,0.6755,4.549
37.6990,-4.6477,0.7140,0.3995,4.719
37.7200,-4.9061,0.8949,0.2395,4.993
37.7540,-5.0300,1.1814,0.2050,5.171
37.7570,-4.6897,0.4580,0.4601,4.734
37.7770,-4.1393,-0.8778,0.9172,4.330
37.7970,-3.7263,-1.4271,1.0871,4.136
37.8160,-3.6078,-0.6351,0.8558,3.762
37.8350,-3.6370,0.7565,0.4082,3.737
37.8540,-3.2641,1.5762,-0.4171,3.649
37.8740,-2.4710,1.5206,-1.6418,3.334
37.8930,-1.1544,0.3858,-2.6412,2.908
37.9130,0.0572,-0.9398,-2.9810,3.126
37.9320,0.9022,-1.6300,-2.7500,3.322
37.9510,1.5709,-1.7631,-2.0840,3.149
37.9730,2.1918,-1.5015,-1.1264,2.886
38.0040,2.6717,-0.8896,-0.6157,2.882
38.0100,3.1396,-0.2962,-0.4212,3.182
38.0290,3.5940,0.3170,-0.4502,3.636
38.0480,3.8341,1.1770,-0.6505,4.063
38.0680,3.8464,2.1051,-0.8449,4.465
38.0870,3.7105,2.7694,-0.8306,4.704
38.1070,3.2892,3.3973,-0.7355,4.786
38.1260,2.5008,4.3133,-0.7460,5.041
38.1460,1.3897,5.6179,-0.8801,5.854
38.1660,0.5158,6.3640,-1.2189,6.500
38.1840,0.3758,5.7773,-1.6600,6.023
38.2040,0.1674,5.0914,-1.9930,5.470
38.2230,-0.1780,4.7428,-2.1613,5.215
38.2420,-0.7001,4.7637,-1.6141,5.078
38.2620,-0.7192,3.9942,-0.6833,4.116
38.2820,-0.5739,2.7152,0.3246,2.794
38.3010,-0.8570,2.1767,1.0378,2.559
38.3210,-1.6524,2.3841,1.6017,3.314
38.3410,-2.0975,2.4332,1.8277,3.696
38.3600,-1.8189,1.9045,1.1022,2.855
38.3810,-1.1500,0.7732,-0.3066,1.419
38.4270,-0.3189,-0.7592,-1.3799,1.607
38.4270,0.5212,-2.4793,-1.6527,3.025
38.4360,1.1734,-3.8307,-1.2058,4.184
38.4560,1.5769,-4.5886,-0.4104,4.869
38.4760,1.8006,-4.6923,0.3838,5.041
38.4960,1.7506,-4.3004,1.0303,4.756
38.5160,1.3689,-3.8700,1.3449,4.320
38.5610,0.7597,-3.5106,1.2806,3.813
38.5610,0.0981,-3.4537,1.0043,3.598
38.5730,-0.5936,-3.4425,0.7577,3.575
38.5940,-1.4256,-3.1869,0.4323,3.518
38.6260,-2.2102,-2.6792,0.1092,3.475
38.6310,-2.7854,-1.9560,0.0329,3.404
38.6500,-3.3230,-0.8586,0.0968,3.434
38.6700,-3.8585,0.2121,0.0791,3.865
38.6890,-3.9356,0.4091,-0.2025,3.962
38.7080,-3.5916,0.0268,-0.5296,3.631
38.7300,-3.4480,0.3770,-0.5727,3.516
38.7510,-3.3112,0.9523,-0.3284,3.461
38.7950,-3.1096,1.0022,0.2509,3.277
38.7950,-3.0290,0.3182,0.9740,3.198
38.8050,-3.0356,-0.4925,1.4374,3.395
38.8240,-3.2313,-0.6558,1.4636,3.607
38.8440,-3.6157,0.0421,1.3466,3.859
38.8650,-3.8165,1.1629,0.5006,4.021
38.8830,-3.6353,1.8756,-0.9880,4.208
38.9040,-2.6878,1.1229,-2.3143,3.720
38.9490,-1.2391,-0.5274,-3.0458,3.330
38.9500,-0.0295,-1.7009,-3.2015,3.625
38.9600,0.8794,-2.1374,-2.7807,3.616
38.9800,1.6031,-1.7495,-1.8129,2.986
38.9990,2.2929,-1.0929,-0.7886,2.660
39.0200,3.0079,-0.4742,-0.0719,3.046
39.0610,3.5933,0.2528,0.2027,3.608
39.0620,4.0251,0.9117,0.1203,4.129
39.0770,4.1796,1.6098,-0.1611,4.482
39.0960,4.0886,2.4678,-0.4549,4.797
39.1160,3.7375,3.4264,-0.6733,5.115
39.1350,3.1631,4.3359,-0.6113,5.402
39.1570,2.5757,5.0563,-0.3946,5.688
39.2010,1.7966,5.9460,-0.4843,6.230
39.2010,1.2318,6.3064,-1.0787,6.515
39.2120,0.8100,5.9143,-1.5472,6.167
39.2320,0.0636,5.7085,-1.9329,6.027
39.2530,-0.6849,5.7570,-1.5349,5.997
39.2710,-0.9017,5.5426,-0.1637,5.618
39.2910,-0.3825,3.7002,1.5349,4.024
39.3310,-0.4153,1.5839,2.7482,3.199
39.3310,-1.8942,0.8677,3.4162,4.001
39.3480,-3.3574,0.2384,3.6415,4.959
39.3680,-3.5915,0.1311,2.2320,4.231
39.3880,-2.9429,0.1363,-0.3954,2.972
39.4060,-1.7794,-0.3862,-2.4326,3.039
39.4260,-0.3074,-1.6853,-3.2711,3.693
39.4680,0.6958,-3.0326,-2.9160,4.264
39.4680,1.3478,-3.8849,-2.2216,4.674
39.4840,1.8464,-4.2618,-1.2579,4.812
39.5040,2.1355,-4.3450,-0.0694,4.842
39.5240,2.1037,-4.1471,0.6240,4.692
39.5430,1.5584,-3.3257,1.1293,3.842
39.5620,0.9970,-2.7902,0.9927,3.125
39.6060,0.3088,-2.6459,0.5014,2.711
39.6070,-0.5073,-2.7612,-0.1173,2.810
39.6210,-1.2130,-2.7379,-0.5395,3.043
39.6400,-1.7923,-2.4821,-0.7453,3.151
39.6600,-2.4629,-1.5368,-0.5067,2.947
39.6780,-3.1959,-0.2305,0.1538,3.208
39.6970,-3.7696,0.7122,0.5239,3.872
39.7170,-3.6965,0.3775,0.5551,3.757
39.7370,-3.4576,0.1375,0.2398,3.469
39.7560,-3.2806,0.5129,-0.0090,3.320
39.7750,-3.1092,1.0142,0.2462,3.280
39.7940,-2.9359,1.1083,0.8504,3.251
39.8140,-3.0685,0.9268,1.5811,3.574
39.8330,-3.2702,0.7302,1.8560,3.830
39.8530,-3.5206,0.8577,1.6527,3.983
39.8720,-3.7015,1.3237,0.8199,4.016
39.8910,-3.2720,1.3058,-0.5109,3.560
39.9110,-2.2804,0.5719,-1.8011,2.962
39.9300,-0.9101,-0.5222,-2.6349,2.836
39.9500,0.5393,-1.5308,-2.7940,3.231
39.9690,1.5747,-1.8213,-2.2270,3.280
39.9880,2.5243,-1.6382,-1.1737,3.230
40.0080,3.2327,-1.1772,-0.3028,3.454
40.0270,3.6213,-0.4725,0.3186,3.666
40.0460,3.9221,0.1051,0.4709,3.952
40.0660,4.1297,0.5843,0.1369,4.173
40.0870,4.2069,1.1700,-0.4427,4.389
40.1050,4.0649,1.8565,-0.9507,4.569
40.1240,3.5556,2.6448,-1.1102,4.568
40.1440,2.7834,3.4288,-1.0327,4.535
40.1630,1.8799,4.4164,-0.9657,4.896
40.1820,1.0314,5.3947,-0.8362,5.556
40.2020,0.4532,5.9283,-0.9482,6.021
40.2210,-0.0744,5.7178,-0.9571,5.798
40.2400,-0.5892,5.2712,-0.7794,5.361
40.2600,-1.0863,4.9364,-0.7236,5.106
40.2790,-1.6744,4.9136,-0.1922,5.195
40.2980,-1.7336,3.8203,0.2912,4.205
40.3180,-1.6139,1.8890,0.8577,2.628
40.3370,-1.9832,0.4492,1.2140,2.368
40.3570,-2.5833,-0.4812,1.5832,3.068
40.3760,-2.8437,-0.8133,1.4207,3.281
40.3960,-2.5417,-0.7821,0.6215,2.731
40.4150,-1.4540,-0.9929,-0.5630,1.849
40.4340,-0.3121,-1.4566,-1.6052,2.190
40.4530,0.8950,-2.4694,-2.0592,3.338
40.4730,1.7920,-3.4273,-1.5054,4.150
40.4920,2.3183,-3.6485,-0.7732,4.391
40.5120,2.7636,-3.6474,0.0516,4.576
40.5310,2.9162,-3.2811,0.7710,4.457
40.5500,2.5885,-2.8206,0.9774,3.951
40.5700,2.1220,-2.5521,0.8170,3.418
40.5890,1.3827,-2.3242,0.3559,2.728
40.6090,0.5481,-1.9965,-0.1986,2.080
40.6280,-0.2042,-1.8132,-0.3002,1.849
40.6470,-0.7844,-1.5186,-0.2663,1.730
40.6680,-1.3836,-0.9291,-0.0786,1.668
40.6860,-2.1738,0.0914,0.3371,2.202
40.7070,-3.1609,1.2859,0.8199,3.510
40.7450,-3.7341,1.5182,1.0373,4.162
40.7460,-3.5266,0.7985,0.7276,3.688
40.7650,-3.0460,0.3670,0.1988,3.074
40.7830,-2.5942,0.3294,0.5131,2.665
40.8040,-2.2530,0.2057,1.4414,2.683
40.8220,-2.0551,-0.4950,2.5638,3.323
40.8430,-2.1905,-1.2042,3.3783,4.203
40.8780,-2.7021,-1.1558,3.4838,4.558
40.8810,-3.3897,-0.2085,2.6856,4.330
40.9000,-3.5901,0.8008,0.9975,3.811
40.9200,-3.3419,1.1851,-0.5932,3.595
40.9390,-2.3217,0.4811,-1.5378,2.826
40.9590,-0.8718,-0.7442,-1.6981,2.049
40.9780,0.2475,-1.5434,-1.3479,2.064
40.9990,1.1843,-1.7475,-0.6054,2.196
41.0460,1.9252,-1.4233,0.3318,2.417
41.0460,2.4991,-0.9265,0.9325,2.824
41.0550,2.9793,-0.5016,1.1686,3.239
41.0740,3.3427,-0.1220,0.8595,3.454
41.0960,3.5273,0.2496,0.2926,3.548
41.1180,3.6405,0.7260,-0.3012,3.724
41.1340,3.5813,1.3058,-0.7770,3.890
41.1520,3.3554,2.0018,-0.9810,4.028
41.1720,2.9902,2.8637,-0.9294,4.243
41.1910,2.1838,4.1354,-0.7011,4.729
41.2110,1.2531,5.7918,-0.7805,5.977
41.2520,0.7329,6.8986,-1.1643,7.034
41.2530,0.6412,6.7815,-1.2803,6.931
41.2700,0.1448,6.4749,-1.1210,6.573
41.2910,-0.7210,5.8972,-0.7397,5.987
41.3070,-1.8074,5.8474,-0.5686,6.147
41.3270,-1.8390,4.5606,-0.4553,4.938
41.3530,-1.7069,2.4350,-0.0556,2.974
41.4080,-1.9621,0.5824,0.4548,2.097
41.4090,-2.3582,-0.5932,0.9807,2.622
41.4090,-2.4116,-0.9261,1.4652,2.970
41.4240,-1.7415,-0.3009,1.6261,2.402
41.4430,-0.6500,-0.2095,1.0473,1.250
41.4630,0.3014,-0.9747,-0.5036,1.138
41.4850,0.8671,-2.2132,-1.6984,2.921
41.5360,1.1405,-3.4323,-2.2830,4.277
41.5360,1.3365,-3.9399,-1.9939,4.614
41.5410,1.4570,-3.7913,-0.9642,4.174
41.5590,1.6228,-3.6579,0.2065,4.007
41.5800,1.6979,-3.4516,1.9526,4.314
41.5980,1.4742,-3.4693,2.4950,4.520
41.6180,0.9741,-3.5573,1.6382,4.036
41.6380,0.2741,-3.2978,0.9329,3.438
41.6880,-0.4091,-3.1795,0.5841,3.259
41.6880,-1.0798,-2.6004,0.4449,2.851
41.6950,-1.9797,-1.0645,0.6408,2.337
41.7150,-2.9952,0.7682,0.9004,3.221
41.7340,-3.6738,1.7157,0.6873,4.113
41.7550,-3.9506,1.3352,0.6904,4.227
41.7740,-3.7925,-0.3804,0.0577,3.812
41.8260,-3.1018,-1.9920,-0.1888,3.691
41.8260,-2.6693,-2.6186,0.6504,3.795
41.8310,-2.7364,-2.0777,2.1101,4.032
41.8500,-3.5246,-0.3596,3.1969,4.772
41.8700,-4.3621,0.9232,3.3381,5.570
41.8900,-5.3476,1.9140,2.6972,6.288
41.9090,-5.6381,2.3805,0.9305,6.190
41.9440,-5.2134,1.8086,-1.1347,5.634
41.9470,-3.6344,-0.0387,-2.8971,4.648
41.9670,-1.8822,-1.6555,-3.1439,4.021
41.9870,-0.3525,-2.0966,-2.4034,3.209
42.0070,0.9970,-1.6415,-1.2407,2.286
42.0260,2.1117,-1.0556,-0.3463,2.386
42.0450,2.9443,-0.7318,-0.0462,3.034
42.0650,3.5298,-0.2851,-0.3253,3.556
42.1040,3.8090,0.1984,-0.6136,3.863
42.1050,3.9951,0.7113,-0.3551,4.073
42.1220,4.0502,1.2254,-0.0964,4.233
42.1410,3.9240,1.9560,0.0418,4.385
42.1620,3.5449,2.9802,0.1661,4.634
42.2030,2.9796,4.1811,0.3621,5.147
42.2040,2.1089,5.4366,0.5597,5.858
42.2190,1.1240,6.4816,0.2359,6.583
42.2380,0.6524,6.6210,-0.8343,6.705
42.2590,0.7668,5.9904,-1.7121,6.277
42.2800,0.8461,5.6650,-2.1290,6.111
42.3240,0.7812,5.5293,-2.0828,5.960
42.3250,0.8188,5.2208,-1.3032,5.443
42.3350,0.5321,5.0819,-0.3535,5.122
42.3550,0.0597,4.1458,0.5680,4.185
42.3740,-0.5190,3.5588,1.0512,3.747
42.3960,-1.3140,3.3612,0.8785,3.714
42.4420,-1.7579,2.8608,0.3570,3.377
42.4420,-1.6529,2.0120,-0.1930,2.611
42.4510,-1.1659,0.7420,-0.4919,1.467
42.4710,-0.3029,-0.8607,-0.6340,1.111
42.4910,0.6824,-2.4946,-0.5473,2.644
42.5110,1.4190,-3.9218,-0.1544,4.173
42.5300,1.8650,-4.7634,0.3835,5.130
42.5720,1.8958,-4.7698,0.7869,5.193
42.5730,1.6292,-4.2385,1.1088,4.674
42.5880,1.1410,-3.7066,1.2895,4.087
42.6070,0.6036,-3.5780,1.0650,3.782
42.6260,-0.0328,-3.8198,0.6803,3.880
42.6470,-0.8037,-3.9842,0.3660,4.081
42.6740,-1.6249,-3.8264,0.1581,4.160
42.6840,-2.3535,-3.4482,0.0396,4.175
42.7040,-3.0406,-2.8010,0.1610,4.137
42.7230,-3.9827,-1.6925,0.4122,4.347
42.7430,-5.0891,-0.4141,0.5821,5.139
42.7640,-5.9222,0.2658,0.5843,5.957
42.7970,-6.2664,0.2798,0.3190,6.281
42.8010,-6.2644,0.1962,-0.0987,6.268
42.8460,-5.9277,-0.0349,-0.4453,5.945
42.8460,-4.9806,-1.2983,-0.3970,5.162
42.8590,-4.2306,-2.4909,0.1566,4.912
42.8790,-4.0495,-2.3067,0.5167,4.689
42.9220,-4.0748,-1.3028,0.5876,4.318
42.9230,-4.0348,-0.0409,0.3031,4.046
42.9360,-4.0236,1.2580,-0.5456,4.251
42.9570,-3.3336,1.7463,-1.7630,4.156
42.9750,-2.1034,1.5826,-2.7949,3.839
42.9960,-0.6642,1.2330,-2.9734,3.287
43.0150,0.7084,1.0471,-2.3615,2.679
43.0350,1.6221,1.3991,-1.3283,2.521
43.0820,2.5113,1.9140,-0.1585,3.161
43.0820,3.3046,2.1740,0.8046,4.037
43.0910,3.8021,2.2671,1.2678,4.605
43.1110,3.9955,2.4099,1.1094,4.796
43.1310,4.0711,2.6338,0.7755,4.910
43.1530,4.1209,2.9737,0.4298,5.100
43.1700,4.1775,3.3974,0.0129,5.385
43.2120,4.2491,4.0199,-0.4117,5.864
43.2130,4.0687,5.1280,-0.7249,6.586
43.2270,3.7351,6.2837,-1.0915,7.391
43.2470,3.2415,7.0665,-1.4524,7.909
43.2670,2.5973,7.1887,-1.8370,7.861
43.2860,2.0558,6.5862,-2.0397,7.195
43.3060,1.2267,6.5488,-2.2478,7.032
43.3500,0.3146,6.6822,-2.0826,7.006
43.3500,-0.7783,6.8921,-1.7441,7.152
43.3630,-1.7585,6.4209,-1.2809,6.779
43.3860,-2.1568,4.1258,-0.6258,4.697
43.4020,-2.4258,1.6505,-0.0930,2.936
43.4230,-2.7672,-0.2688,0.7148,2.871
43.4730,-3.0261,-1.1883,1.3958,3.538
43.4730,-3.2191,-1.0195,1.4589,3.678
43.4790,-2.6224,-1.1051,0.3860,2.872
43.4990,-1.8918,-1.6363,-1.0562,2.715
43.5180,-1.3256,-2.6922,-2.2225,3.734
43.5380,-0.7924,-4.0280,-2.5051,4.809
43.5580,-0.3013,-4.9136,-1.9579,5.298
43.5770,0.1929,-5.2801,-1.0637,5.390
43.6180,0.4419,-5.2058,-0.0903,5.225
43.6190,0.4320,-4.8868,0.3160,4.916
43.6340,0.2264,-4.5184,0.3277,4.536
43.6540,-0.1486,-4.3058,0.4049,4.327
43.6740,-0.5829,-4.2754,0.4111,4.335
43.6940,-1.0484,-4.1577,0.3437,4.302
43.7310,-1.5989,-3.7445,0.2132,4.077
43.7330,-2.1371,-2.9374,0.1666,3.636
43.7510,-2.6608,-1.8039,0.4827,3.251
43.7710,-3.2624,-0.5971,1.2658,3.550
43.7920,-3.9232,0.2524,1.8041,4.325
43.8100,-4.3095,0.1185,1.7319,4.646
43.8450,-4.2881,-0.3295,1.1557,4.453
43.8500,-4.0127,-0.2368,0.5140,4.052
43.8670,-3.4380,-0.0351,0.5025,3.475
43.8900,-2.6411,0.0437,1.0672,2.849
43.9080,-2.1427,-0.0352,2.0012,2.932
43.9260,-2.2565,0.4359,2.6059,3.475
43.9460,-2.6197,1.1538,2.6382,3.893
43.9660,-2.9358,1.9567,2.1651,4.140
44.0080,-2.9721,2.7992,0.8907,4.179
44.0080,-2.5117,2.8733,-0.5531,3.856
44.0230,-1.6492,1.8915,-1.4634,2.905
44.0430,-0.5721,0.3578,-1.7250,1.852
44.0620,0.3651,-0.9169,-1.5338,1.824
44.0810,1.1020,-1.6300,-1.1649,2.287
44.1010,1.9061,-1.9092,-0.7329,2.796
44.1320,2.4388,-1.4805,-0.4075,2.882
44.1390,2.7945,-0.7376,-0.4109,2.919
44.1590,2.9819,0.2539,-0.4279,3.023
44.1780,3.3804,1.0578,-0.5114,3.579
44.1980,3.6407,1.8088,-0.6443,4.116
44.2170,3.6794,2.7172,-0.7306,4.632
44.2370,3.6183,3.6033,-0.7229,5.157
44.2690,3.2174,4.7418,-0.5801,5.760
44.2740,2.5448,5.9565,-0.3854,6.489
44.2940,1.5536,7.2381,-0.3928,7.413
44.3140,0.8799,7.4796,-0.8997,7.585
44.3340,0.4799,6.7045,-1.5708,6.903
44.3530,-0.1699,5.8531,-2.0231,6.195
44.3750,-0.8395,5.1890,-2.1877,5.694
44.4040,-1.5684,4.7740,-1.3264,5.197
44.4100,-1.6836,3.9131,0.1498,4.263
44.4300,-1.2512,2.1464,1.0779,2.708
44.4500,-1.1844,0.5018,1.0847,1.683
44.4700,-1.7635,0.0022,0.7228,1.906
44.4890,-2.5111,0.3885,0.4875,2.587
44.5110,-2.6395,0.3941,0.6637,2.750
44.5600,-2.1136,-0.2533,0.5770,2.206
44.5600,-1.2728,-1.6085,0.1013,2.054
44.5650,-0.2431,-3.0840,-0.3907,3.118
44.5850,0.5709,-4.2004,-0.6286,4.285
44.6050,1.2012,-4.7854,-0.4750,4.957
44.6240,1.5999,-4.5992,-0.0420,4.870
44.6440,1.7476,-3.8439,0.5155,4.254
44.6890,1.7687,-3.2867,0.9476,3.851
44.6900,1.5045,-3.0083,0.9959,3.508
44.7010,0.9181,-2.8363,0.7854,3.083
44.7210,0.4568,-3.0328,0.6329,3.132
44.7400,-0.0612,-2.8577,0.5888,2.918
44.7610,-0.7417,-2.1045,0.7709,2.361
44.7810,-1.5289,-1.1899,1.1496,2.253
44.8310,-2.3992,-0.1906,1.5263,2.850
44.8310,-3.2011,0.5731,1.5561,3.605
44.8380,-3.5450,0.5025,1.2706,3.799
44.8570,-3.4965,-0.1327,0.7282,3.574
44.8770,-3.4468,-0.1063,0.2833,3.460
44.8980,-2.9909,-0.3192,0.2482,3.018
44.9190,-2.6459,-0.9451,0.7595,2.910
44.9630,-2.6125,-1.5207,1.6481,3.443
44.9640,-2.8485,-1.7121,2.6174,4.230
44.9730,-3.6114,-0.9114,3.2045,4.913
44.9920,-4.5747,0.0265,3.3300,5.658
45.0130,-5.0960,1.0927,1.7716,5.505
45.0330,-4.8666,1.6693,-0.7180,5.195
45.0520,-4.0518,1.2282,-2.5753,4.956
45.0720,-2.5787,0.0992,-3.5671,4.403
45.1160,-1.1005,-0.6751,-3.5758,3.802
45.1170,0.1467,-0.7217,-2.5710,2.674
45.1290,1.2751,-0.1238,-1.2080,1.761
45.1480,2.6627,0.5722,0.2088,2.731
45.1680,3.6768,1.2327,1.1347,4.041
45.1860,4.6102,1.2940,1.4615,5.006
45.2070,5.0451,1.1675,0.9879,5.272
45.2440,5.1504,1.0775,-0.0718,5.262
45.2450,4.9797,1.4501,-0.7073,5.235
45.2640,4.6940,2.2648,-0.9468,5.297
45.2860,4.2925,3.4378,-1.0733,5.603
45.3030,3.7488,4.6461,-0.9441,6.044
45.3230,2.9601,6.2346,-1.0435,6.980
45.3430,2.1398,7.4280,-1.3668,7.850
45.3800,1.6231,7.4539,-1.7910,7.836
45.3810,0.9963,6.9906,-2.1243,7.374
45.4000,0.3378,6.5182,-2.0741,6.849
45.4190,-0.5435,6.2204,-0.8640,6.304
45.4390,-1.1763,5.6460,0.9597,5.847
45.4590,-1.4426,4.0212,1.8930,4.673
45.4980,-1.7946,1.7192,2.2704,3.366
45.4990,-2.4052,0.0206,2.2589,3.300
45.5170,-3.2882,-0.1589,1.7380,3.723
45.5360,-3.6384,0.2724,1.1480,3.825
45.5560,-3.0704,-0.1024,0.4381,3.103
45.5970,-2.0818,-1.2098,-0.5249,2.464
45.5980,-1.1296,-2.5112,-1.2704,3.033
45.6130,-0.2159,-4.1008,-1.2608,4.296
45.6320,0.5215,-5.0616,-0.9088,5.169
45.6530,1.0705,-5.2273,-0.3677,5.348
45.6710,1.3022,-4.7727,0.1967,4.951
45.6910,1.2233,-4.0539,0.5417,4.269
45.7110,0.9320,-3.4755,0.3490,3.615
45.7490,0.3907,-3.1654,0.0457,3.190
45.7500,-0.1465,-3.2884,-0.2277,3.300
45.7680,-0.6665,-3.6200,-0.1013,3.682
45.7880,-1.3385,-3.2292,0.0936,3.497
45.8070,-1.9821,-2.4415,0.3350,3.163
45.8270,-2.7112,-1.2761,0.6847,3.074
45.8470,-3.4992,-0.0409,1.0069,3.641
45.8870,-4.0690,0.7051,0.8827,4.223
45.8880,-4.0645,0.3675,0.3076,4.093
45.9040,-3.7944,0.1360,-0.1374,3.799
45.9240,-3.4417,0.4601,-0.1033,3.474
45.9430,-3.2377,1.0307,0.6852,3.466
45.9860,-3.0281,1.0231,1.7663,3.652
45.9860,-3.0391,0.3018,2.8239,4.159
46.0010,-3.3232,-0.2512,3.0786,4.537
46.0220,-3.8856,-0.0829,2.6685,4.714
46.0400,-4.2046,0.8472,1.3138,4.486
46.0590,-3.7347,1.4649,-0.5578,4.050
46.0790,-2.7640,1.1186,-1.9881,3.584
46.1220,-1.3362,0.1740,-2.7517,3.064
46.1230,0.1534,-0.5786,-2.5237,2.594
46.1370,1.4127,-0.7518,-1.7080,2.340
46.1560,2.5413,-0.3720,-0.8030,2.691
46.1760,3.3992,0.2229,0.2502,3.416
46.1960,3.8958,0.8488,0.9604,4.101
46.2150,4.3398,0.6628,0.8507,4.472
46.2340,4.5490,0.2519,0.0147,4.556
46.2700,4.5885,0.2344,-0.8706,4.676
46.2730,4.4963,0.9370,-1.3047,4.775
46.2930,4.2858,2.0692,-1.3323,4.942
46.3110,3.8938,3.3256,-1.1558,5.250
46.3320,3.1577,4.8091,-0.8222,5.812
46.3500,2.2599,6.1757,-0.5273,6.597
46.3710,1.4374,6.8186,-0.5913,6.993
46.4080,0.8437,6.3973,-1.0733,6.541
46.4090,0.0292,6.0324,-1.6626,6.257
46.4280,-0.7580,5.5997,-1.8241,5.938
46.4480,-1.4077,5.0597,-0.9492,5.337
46.4670,-1.4237,4.4339,0.2030,4.661
46.4910,-1.3424,2.9804,1.1777,3.474
46.5410,-1.6118,1.5549,1.5044,2.698
46.5420,-2.0905,0.8637,1.3206,2.619
46.5440,-2.6180,0.8604,1.0022,2.932
46.5630,-2.5596,0.7573,0.7969,2.786
46.5830,-1.7208,-0.0286,0.3878,1.764
46.6020,-0.6557,-1.1511,-0.2291,1.344
46.6220,0.3622,-2.5713,-0.8199,2.723
46.6480,1.0825,-3.9859,-0.8522,4.217
46.6890,1.6258,-5.0346,-0.7186,5.339
46.6890,1.8474,-5.1498,-0.2245,5.476
46.6990,1.8377,-4.9362,0.2836,5.275
46.7200,1.5816,-4.1856,0.5023,4.503
46.7380,1.1186,-3.2990,0.6099,3.536
46.7580,0.5613,-3.0580,0.6205,3.170
46.7770,-0.2281,-3.0063,0.4031,3.042
46.7970,-1.0509,-2.9600,0.4178,3.169
46.8420,-1.7983,-2.7713,0.5667,3.352
46.8430,-2.6023,-1.9181,0.6493,3.297
46.8540,-3.4130,-0.8882,0.8266,3.622
46.8740,-4.1191,0.1141,1.0793,4.260
46.8940,-4.4411,0.4946,1.1723,4.620
46.9140,-3.9636,-0.4903,0.9678,4.109
46.9610,-3.4067,-1.2459,0.6769,3.690
46.9610,-2.7712,-1.3081,0.3674,3.086
46.9710,-1.9407,-1.5395,0.5650,2.541
46.9900,-1.8778,-0.8801,1.3423,2.470
47.0100,-3.1160,1.4795,2.2422,4.114
47.0300,-4.4339,3.4286,2.7772,6.255
47.0490,-4.9011,3.4493,3.0041,6.704
47.0810,-4.7798,2.4287,1.8633,5.676
47.0870,-4.3497,1.1000,-0.1992,4.491
47.1060,-3.4607,-0.3668,-1.7780,3.908
47.1260,-2.3236,-1.5853,-2.6828,3.887
47.1480,-1.3328,-1.9345,-3.2021,3.971
47.1650,-0.3882,-1.4604,-3.1145,3.462
47.1850,0.7784,-0.5622,-2.3976,2.583
47.2290,2.0239,0.2420,-1.3849,2.464
47.2290,3.1053,1.1473,-0.4683,3.343
47.2420,4.0041,1.7895,0.0556,4.386
47.2620,4.9397,1.7640,0.2747,5.252
47.2820,5.5027,1.8284,0.1266,5.800
47.3010,5.7005,2.1479,-0.2991,6.099
47.3210,5.5905,3.0934,-0.4885,6.408
47.3620,5.0477,4.8408,-0.6179,7.021
47.3630,4.1275,6.6534,-0.7014,7.861
47.3780,3.4064,7.4699,-0.9615,8.266
47.3990,2.3816,7.3896,-1.2579,7.865
47.4170,1.1706,7.0693,-1.8262,7.395
47.4360,-0.0135,7.0291,-2.3011,7.396
47.4570,-1.1279,7.3633,-2.1226,7.746
47.4970,-2.3342,7.8517,-1.4696,8.322
47.4980,-2.7678,6.3197,-0.4916,6.917
47.5140,-2.9120,2.9669,0.7042,4.216
47.5340,-3.0152,-0.1582,2.2420,3.761
47.5530,-3.1277,-1.3160,3.2951,4.730
47.5730,-3.0942,-0.5962,3.1870,4.482
47.5920,-2.2700,-0.2545,1.9920,3.031
47.6230,-1.4097,-0.7675,0.4714,1.673
47.6310,-0.9385,-1.8057,-0.8952,2.223
47.6500,-0.4751,-3.2128,-1.6680,3.651
47.6700,0.1792,-4.4803,-1.6810,4.789
47.6890,0.7844,-5.1572,-1.1124,5.334
47.7080,1.1310,-4.9734,-0.3080,5.110
47.7310,1.3334,-4.4963,0.3218,4.701
47.7470,1.2442,-4.0397,0.6745,4.280
47.7660,0.7528,-3.6738,0.4788,3.781
47.7860,-0.0308,-3.6319,0.0950,3.633
47.8050,-0.8380,-3.6912,-0.1673,3.789
47.8240,-1.5866,-3.6144,-0.1305,3.949
47.8450,-2.2557,-3.2017,-0.0190,3.917
47.8830,-2.8955,-2.4118,0.2645,3.778
47.8840,-3.6089,-1.3963,0.7326,3.938
47.9020,-4.3148,-0.4495,0.9889,4.449
47.9210,-4.7342,-0.3121,0.8957,4.828
47.9410,-4.8762,-0.5751,0.6317,4.950
47.9610,-4.8067,-0.1033,0.3484,4.820
47.9990,-4.6083,0.7634,0.3997,4.688
48.0000,-4.2127,1.1950,0.6244,4.423
48.0190,-3.8686,0.8731,1.3480,4.189
48.0370,-3.8456,0.6199,1.8850,4.327
48.0570,-4.0165,0.7408,1.9351,4.519
48.0770,-4.4539,1.6824,1.6319,5.033
48.0970,-4.6517,2.7894,0.5513,5.452
48.1310,-3.9676,2.9450,-0.8723,5.018
48.1340,-2.6075,2.0496,-2.0305,3.889
48.1540,-1.1182,0.7664,-2.6553,2.981
48.1740,0.1383,-0.0062,-2.5126,2.516
48.1940,1.2195,-0.2001,-1.8113,2.193
48.2120,2.2154,-0.0488,-1.0271,2.442
48.2330,3.0005,0.4998,-0.3402,3.061
48.2680,3.7635,1.1237,-0.0353,3.928
48.2710,4.5050,1.4502,0.0575,4.733
48.2910,5.0209,1.8436,-0.0731,5.349
48.3100,5.4902,2.1711,-0.2660,5.910
48.3290,5.7517,2.5242,-0.3877,6.293
48.3480,5.5457,3.3323,-0.4875,6.488
48.3730,4.8485,4.4937,-0.8010,6.659
48.4220,3.8038,5.6935,-1.0973,6.935
48.4230,2.7735,6.9125,-1.5475,7.607
48.4250,2.1948,7.6638,-1.6092,8.133
48.4460,1.8169,7.6742,-1.4804,8.024
48.4650,1.1758,7.4206,-1.0847,7.591
48.4840,0.1515,7.3655,-0.6194,7.393
48.5040,-1.0003,7.6905,0.0770,7.756
48.5400,-1.6164,6.7188,0.8026,6.957
48.5420,-1.9032,4.5378,1.4029,5.117
48.5610,-2.6503,2.7650,1.7697,4.219
48.5810,-3.4450,1.5097,1.7528,4.150
48.6000,-4.2178,1.1673,1.0392,4.498
48.6230,-4.2151,0.8743,0.0410,4.305
48.6690,-3.4486,-0.0599,-0.9507,3.578
48.6700,-2.4986,-1.4933,-1.6567,3.349
48.6770,-1.6889,-3.3007,-1.7192,4.087
48.6970,-0.8694,-5.1819,-1.3429,5.423
48.7170,-0.1167,-6.4467,-0.8842,6.508
48.7360,0.2820,-6.6546,-0.4843,6.678
48.7560,0.3629,-5.8908,-0.1947,5.905
48.7750,0.1690,-4.8344,-0.1825,4.841
48.7950,-0.3036,-4.0453,-0.4186,4.078
48.8420,-0.8507,-3.7266,-0.7269,3.891
48.8420,-1.3900,-3.9835,-0.8288,4.300
48.8520,-1.9413,-4.3297,-0.6322,4.787
48.8720,-2.4166,-4.0910,-0.3087,4.761
48.8920,-3.2465,-2.9687,-0.0694,4.400
48.9110,-4.2825,-1.7034,0.2405,4.615
48.9310,-5.3387,-0.7503,0.3909,5.405
48.9740,-5.9093,-0.9820,0.1843,5.993
48.9740,-5.9102,-1.6741,-0.3766,6.154
48.9880,-6.0438,-1.2762,-0.7927,6.228
49.0070,-6.0900,-0.2436,-0.6428,6.129
49.0270,-6.1396,0.2488,0.0036,6.145
49.0470,-6.4608,-0.3473,0.4093,6.483
49.0680,-6.9201,-0.6793,-0.1440,6.955
49.1100,-7.4397,0.3953,-1.0921,7.530
49.1100,-7.3496,2.7590,-1.7508,8.043
49.1240,-6.0844,4.4405,-1.9337,7.777
49.1430,-4.1767,3.7826,-2.0389,5.993
49.1630,-2.6406,2.2638,-2.4265,4.241
49.2070,-2.1622,1.6125,-2.4564,3.648
49.2080,-2.2612,1.8943,-2.0239,3.577
49.2200,-2.4372,2.5123,-1.6080,3.852
49.2410,-2.0055,2.6491,-1.3218,3.576
49.2610,-1.4880,3.5411,-0.7285,3.910
49.2800,-1.1266,4.4648,-0.2626,4.612
49.3010,-0.6528,4.3506,0.2742,4.408
49.3450,-0.4930,4.2912,0.9322,4.419
49.3460,-0.1887,4.5383,2.1415,5.022
49.3560,0.2001,4.5638,3.1637,5.557
49.3760,0.3270,4.2804,3.4766,5.524
49.3970,0.2840,4.0733,3.5373,5.402
49.4150,0.1870,4.3110,3.3379,5.455
49.4340,0.0314,3.8303,2.4710,4.558
49.4550,-0.4785,3.1505,1.3582,3.464
49.4940,-0.9919,2.7989,0.9116,3.106
49.4950,-0.8802,2.6119,1.8793,3.336
49.5120,-0.3359,1.7460,2.5976,3.148
49.5310,0.0205,0.4889,1.9426,2.003
49.5530,-0.4503,0.3444,0.3984,0.693
49.5700,-1.5388,1.5339,-0.8168,2.321
49.5900,-2.3573,2.7216,-0.7374,3.675
49.6250,-2.6821,2.7612,1.0249,3.984
49.6300,-2.1006,0.8445,2.6226,3.465
49.6470,-1.7004,-0.6512,2.5120,3.102
49.6670,-1.6818,-0.7347,1.1969,2.191
49.6860,-1.5239,0.1067,0.1831,1.539
49.7340,-1.1102,1.0127,0.9011,1.752
49.7340,-0.3461,0.7324,2.6453,2.767
49.7440,0.2797,0.3106,4.1730,4.194
49.7640,0.5468,-0.1836,4.6068,4.643
49.7850,0.5476,-0.4400,4.4198,4.475
49.8020,0.4343,-0.6517,3.5174,3.603
49.8230,0.1110,-0.5229,2.5174,2.574
49.8420,-0.2211,-0.3202,2.1297,2.165
49.8850,-0.6041,-0.3546,1.9581,2.080
49.8860,-0.5873,-0.6978,1.9043,2.111
49.9000,-0.5428,-1.2586,1.7970,2.260
49.9210,-0.3896,-1.5924,1.5903,2.284
49.9400,-0.4683,-1.5306,1.2113,2.007
49.9590,-0.6533,-1.5334,0.9911,1.939
50.0000,-0.6910,-1.6078,0.6549,1.869
50.0000,-0.7910,-1.6067,0.0769,1.793
50.0160,-0.4608,-1.7394,-0.4695,1.860
50.0350,-0.1497,-1.4713,-0.8519,1.707
50.0560,-0.2149,-0.5928,-1.2513,1.401
50.0750,-0.3228,0.5127,-1.5194,1.636
50.0950,-0.0481,1.4087,-0.8180,1.630
50.1310,0.4601,1.4478,0.2682,1.543
50.1320,0.4527,1.0732,0.2170,1.185
50.1520,-0.1470,1.2259,-0.5685,1.359
50.1710,-0.8812,1.4105,-1.0381,1.961
50.1910,-1.1077,1.5035,-1.2658,2.256
50.2120,-0.7182,1.5651,-1.2831,2.147
50.2300,-0.1787,1.6998,-0.0926,1.712
50.2670,0.4130,1.1980,1.6652,2.093
50.2680,0.8027,0.4795,2.7290,2.885
50.2870,0.7609,-0.1271,3.0909,3.186
50.3080,0.8124,-0.5667,3.0910,3.246
50.3270,0.8891,-0.7344,3.1377,3.343
50.3460,1.0316,-0.3913,3.3422,3.520
50.3650,1.2597,-0.3637,3.0815,3.349
50.3850,1.1791,-0.2632,2.1092,2.431
50.4230,0.8100,0.0244,1.3067,1.538
50.4230,0.2504,0.3877,0.6768,0.819
50.4420,-0.1885,0.8867,0.0794,0.910
50.4630,-0.6986,0.9868,-0.5769,1.340
50.4820,-1.2370,0.7936,-1.3001,1.962
50.5060,-1.3703,0.9238,-1.5568,2.270
50.5550,-1.2847,1.0998,-1.1135,2.025
50.5550,-1.3091,1.1423,-0.9612,1.986
50.5590,-1.9185,1.2958,-3.0603,3.837
50.5780,-2.8339,1.4902,-6.0424,6.838
50.5980,-3.1173,1.8058,-6.2385,7.204
50.6180,-2.8505,1.4009,-3.2648,4.555
50.6370,-2.2421,0.3347,0.6500,2.358
50.6570,-1.4364,-1.3506,3.2906,3.836
50.7080,-0.4747,-2.7456,2.9293,4.043
50.7080,-0.2028,-2.1312,1.2894,2.499
50.7140,0.0115,-1.1819,-0.5692,1.312
50.7340,0.5866,-0.3706,-0.8754,1.117
50.7530,1.4068,-0.1098,0.5138,1.502
50.7760,2.0498,-0.2372,2.6390,3.350
50.7930,2.4400,-0.8282,3.5976,4.425
50.8410,2.3111,-1.0356,2.8995,3.850
50.8410,1.6888,-0.5851,1.4923,2.328
50.8500,1.0377,-0.2752,0.1971,1.092
50.8690,0.8033,-0.3660,-0.6194,1.078
50.8890,0.2794,-0.7328,-1.0854,1.339
50.9080,0.0037,-0.8446,-1.1876,1.457
50.9280,-0.0301,-0.8535,-1.0739,1.372
50.9670,-0.2672,-0.6903,-1.0869,1.315
50.9670,-0.7327,-0.3402,-0.8717,1.189
50.9860,-1.1180,-0.2360,-0.8698,1.436
51.0050,-1.5312,-0.2064,-1.1772,1.942
51.0260,-1.7104,0.2566,-1.4724,2.271
51.0440,-1.4602,0.7542,-1.0100,1.929
51.0630,-0.7712,0.8693,-0.1789,1.176
51.0840,-0.3130,0.8378,0.6603,1.112
51.1300,-0.3038,1.5725,1.4589,2.166
51.1310,-0.7304,2.6308,2.2016,3.507
51.1420,-1.6464,3.4437,2.2162,4.414
51.1610,-2.3121,3.9257,1.5676,4.818
51.1800,-2.0882,3.9457,0.9799,4.571
51.1990,-1.2101,3.5472,1.0339,3.888
51.2190,-0.5499,2.7060,0.8351,2.885
51.2600,0.1896,2.2335,0.1714,2.248
51.2600,0.4584,1.5982,-0.2317,1.679
51.2770,0.4670,0.6585,-0.3100,0.865
51.2970,0.6131,-0.5387,-0.2536,0.855
51.3160,0.8156,-2.0656,-0.3992,2.256
51.3360,1.1000,-2.8835,-0.6494,3.154
51.3750,1.3552,-2.9769,-0.7401,3.354
51.3760,0.9417,-2.6506,-1.0986,3.020
51.3930,0.5894,-2.2764,-2.2081,3.226
51.4120,0.4489,-1.4257,-2.9911,3.344
51.4330,0.1039,-0.1495,-2.7737,2.780
51.4510,-0.7005,1.1598,-1.8878,2.324
51.4720,-1.8855,2.5997,-1.2847,3.459
51.5110,-2.8412,3.6359,-1.2896,4.791
51.5110,-3.3663,3.3347,-1.5518,4.986
51.5280,-3.8993,2.8088,-1.3710,4.997
51.5490,-4.5488,2.4106,-0.9117,5.228
51.5680,-4.7065,1.4597,-0.0008,4.928
51.5880,-4.2151,0.4807,1.1132,4.386
51.6070,-3.3881,-1.3037,1.2280,3.832
51.6400,-2.4117,-2.7160,0.5653,3.676
51.6460,-2.0200,-2.3650,-0.1844,3.116
51.6640,-1.8712,-1.6583,-0.3658,2.527
51.6840,-1.7027,-0.9997,0.3986,2.014
51.7030,-1.2016,-1.1231,0.7007,1.788
51.7230,-0.4378,-2.1362,0.5311,2.244
51.7420,0.2152,-3.1925,0.1174,3.202
51.7630,0.9448,-3.9747,-0.3168,4.098
51.7930,1.8904,-4.5194,-0.3072,4.908
51.8000,2.2170,-4.2860,-0.1313,4.827
51.8200,2.1177,-3.3916,0.2717,4.008
51.8390,1.8756,-2.3959,0.6967,3.121
51.8590,1.5108,-1.9628,0.9713,2.661
51.8830,0.9785,-2.2610,1.0820,2.691
51.9260,0.6259,-2.8270,0.9185,3.038
51.9270,0.1398,-2.9437,1.0055,3.114
51.9370,-0.3818,-2.1494,0.9741,2.391
51.9560,-0.8528,-1.1624,1.1636,1.853
51.9760,-1.4393,0.0325,1.4584,2.049
51.9940,-2.0756,0.8646,1.6384,2.782
52.0150,-2.6485,1.0436,1.3934,3.169
52.0440,-2.9881,0.6726,0.8168,3.170
52.0530,-3.2168,0.8571,0.1319,3.332
52.0720,-3.5683,1.8731,-0.2893,4.040
52.0920,-3.7719,2.9202,-0.2452,4.776
52.1110,-3.7686,2.6749,0.5549,4.655
52.1310,-3.6163,0.8609,1.6592,4.071
52.1630,-3.5868,-0.5892,2.2001,4.249
52.1690,-3.8710,-0.0848,2.2874,4.497
52.1880,-3.9674,1.4805,1.6316,4.538
52.2080,-3.9358,2.4821,0.3601,4.667
52.2280,-3.2980,2.0563,-0.9045,3.990
52.2490,-2.2185,1.1238,-2.0564,3.227
52.2690,-0.9487,0.1924,-2.6999,2.868
52.3140,0.3960,-0.4602,-2.5107,2.583
52.3150,1.4881,-0.2766,-1.9399,2.461
52.3240,2.5680,0.1988,-1.3174,2.893
52.3430,3.6147,0.6513,-0.6424,3.729
52.3640,4.5611,0.9044,-0.0847,4.651
52.3840,5.2106,0.8734,0.2137,5.288
52.4170,5.6449,0.4288,0.1270,5.663
52.4210,5.9231,-0.1897,-0.2004,5.930
52.4400,5.8689,-0.1289,-0.4589,5.888
52.4600,5.5757,0.8424,-0.5377,5.665
52.4800,5.0325,2.1456,-0.2826,5.478
52.5180,4.1393,4.1416,0.3503,5.866
52.5190,3.0357,5.9781,0.5179,6.725
52.5370,1.8496,6.9097,0.0614,7.153
52.5570,0.8109,6.4967,-0.7782,6.593
52.5770,-0.3617,6.0592,-1.7369,6.314
52.6150,-1.7181,5.9771,-2.2784,6.623
52.6190,-2.9633,6.3740,-2.0912,7.334
52.6340,-3.7684,5.8514,-0.9084,7.019
52.6540,-3.9382,4.0472,-0.0782,5.648
52.6730,-3.6451,1.5590,0.0939,3.966
52.6920,-3.4736,-0.2707,0.4044,3.508
52.7130,-2.9348,-1.1081,0.8995,3.263
52.7540,-1.8408,-1.3203,0.7093,2.374
52.7550,-0.7547,-1.2311,0.2718,1.469
52.7700,0.1784,-1.5316,-0.3351,1.578
52.7900,1.0347,-2.7004,-1.0209,3.067
52.8090,1.6220,-4.2475,-1.2904,4.726
52.8280,1.6752,-4.9537,-1.1552,5.355
52.8490,1.6326,-4.9543,-0.7993,5.277
52.8680,1.6024,-4.6151,-0.1359,4.887
52.9050,1.4046,-4.0144,0.4338,4.275
52.9060,1.0236,-3.5863,0.6732,3.790
52.9260,0.5073,-3.5388,0.6969,3.642
52.9450,-0.0318,-3.8059,0.4917,3.838
52.9650,-0.6950,-3.4934,0.2685,3.572
52.9850,-1.5859,-2.4626,0.2867,2.943
53.0200,-2.5737,-1.2032,0.4409,2.875
53.0220,-3.5570,-0.2521,0.5247,3.604
53.0420,-4.3924,0.2183,0.2807,4.407
53.0610,-4.7855,-0.0660,-0.0030,4.786
53.0810,-5.1585,0.0650,0.0393,5.159
53.1000,-5.5982,1.0851,0.4340,5.719
53.1210,-5.4852,1.1922,1.0642,5.713
53.1550,-4.8215,-0.1714,1.7292,5.125
53.1580,-4.8158,-0.1009,1.3917,5.014
53.1770,-5.3786,1.3741,0.7077,5.596
53.1970,-5.3287,2.7826,-0.1778,6.014
53.2170,-4.5881,3.2568,-1.2471,5.763
53.2370,-3.2037,2.4273,-2.2051,4.585
53.2660,-1.4579,0.9559,-2.6856,3.202
53.2740,0.1148,0.0292,-2.5219,2.525
53.2940,1.5054,-0.1901,-1.7393,2.308
53.3130,2.8123,-0.0001,-0.8015,2.924
53.3340,4.0552,0.0952,-0.0171,4.056
53.3670,4.7405,0.3184,0.4723,4.775
53.3720,4.9962,0.5401,0.5859,5.059
53.3900,5.0345,0.4505,0.2076,5.059
53.4100,4.8951,0.2983,-0.3992,4.920
53.4300,4.6803,0.2694,-1.0042,4.794
53.4500,4.3709,0.9785,-1.2316,4.645
53.4690,4.0295,2.5607,-0.9298,4.864
53.4890,3.8057,4.1796,-0.5955,5.684
53.5200,3.3150,5.6416,-0.1874,6.546
53.5260,2.6143,6.6726,-0.1429,7.168
53.5460,2.2361,6.6389,-0.4320,7.019
53.5660,1.8382,6.2090,-0.8359,6.529
53.5850,1.1431,5.7429,-1.2482,5.987
53.6040,0.0981,5.8992,-0.9109,5.970
53.6250,-0.8904,6.1655,-0.5049,6.250
53.6620,-1.6033,5.2166,-0.0212,5.457
53.6620,-2.3483,4.0993,0.2767,4.732
53.6810,-3.1740,2.7787,0.5843,4.259
53.7010,-3.7482,1.4909,1.0055,4.157
53.7210,-3.7591,0.3915,1.2466,3.980
53.7400,-3.2297,-0.6650,1.0653,3.465
53.7600,-2.3520,-2.1998,0.3201,3.236
53.7910,-1.3690,-3.9149,-0.6406,4.196
53.7980,-0.4074,-5.4331,-1.4870,5.648
53.8180,0.3590,-6.2086,-1.6484,6.434
53.8380,0.9631,-6.1334,-0.9289,6.278
53.8580,1.2492,-5.3810,0.0360,5.524
53.8900,1.2848,-4.5111,1.0468,4.806
53.8960,0.9784,-4.0002,1.8249,4.504
53.9150,0.2281,-3.6851,1.9910,4.195
53.9330,-0.6753,-3.7404,1.7567,4.187
53.9540,-1.4859,-3.8649,1.3058,4.342
53.9730,-2.3580,-3.1487,0.6543,3.988
53.9920,-2.9264,-2.0614,0.1673,3.583
54.0120,-3.3192,-1.0437,0.2082,3.486
54.0490,-3.7686,-0.0049,0.5837,3.814
54.0500,-4.0167,0.5683,0.7545,4.126
54.0690,-3.5952,-0.0815,0.5898,3.644
54.0890,-3.1329,-0.0153,0.1051,3.135
54.1100,-2.7068,0.6067,0.0406,2.774
54.1470,-2.2617,1.3006,0.6052,2.678
54.1490,-2.2085,1.8689,1.6490,3.330
54.1660,-2.7136,2.3855,2.3833,4.328
54.1870,-3.1905,2.0547,2.3770,4.478
54.2060,-3.7118,1.9254,1.5922,4.474
54.2250,-3.9977,2.1473,-0.0551,4.538
54.2470,-3.6426,1.6113,-1.4803,4.249
54.2850,-2.7099,0.5567,-2.5023,3.730
54.2860,-1.4789,-0.4838,-3.2261,3.582
54.3020,-0.1364,-1.0567,-3.2823,3.451
54.3220,1.1818,-1.0319,-2.6328,3.065
54.3420,2.4021,-0.5615,-1.7790,3.041
54.3610,3.4039,0.1723,-0.8636,3.516
54.3840,4.1878,0.7354,-0.0997,4.253
54.4290,4.6940,1.0010,0.3524,4.812
54.4290,4.8889,1.0344,0.1475,4.999
54.4390,4.7368,1.1646,-0.3450,4.890
54.4580,4.4565,1.5417,-0.7006,4.767
54.4780,4.1505,2.0450,-0.7544,4.688
54.4970,3.4861,3.1363,-0.6530,4.735
54.5160,2.6433,4.4549,-0.7509,5.234
54.5400,1.8503,5.3826,-1.0651,5.790
54.5840,1.2949,5.7554,-1.7693,6.159
54.5850,0.9929,5.5850,-2.6249,6.250
54.5930,0.5125,5.6988,-3.0056,6.463
54.6130,-0.3230,6.7141,-2.6184,7.214
54.6320,-1.1169,7.2122,-1.8124,7.520
54.6520,-1.6427,5.8198,-1.1126,6.149
54.6720,-1.8847,3.3303,-0.7269,3.895
54.7170,-2.1183,1.5595,-0.0004,2.630
54.7180,-2.7153,0.5530,1.4974,3.150
54.7290,-2.7325,0.0253,2.7811,3.899
54.7480,-1.8141,-0.5829,2.0673,2.811
54.7680,-0.8572,-1.4706,0.4153,1.752
54.7890,-0.0875,-2.7075,-1.1066,2.926
54.8080,0.4570,-3.7645,-2.0083,4.291
54.8530,0.7980,-4.3363,-1.7604,4.748
54.8530,1.2285,-4.4780,-1.0157,4.753
54.8650,1.4766,-4.2110,-0.0991,4.463
54.8840,1.5505,-3.8802,0.7227,4.241
54.9040,1.3347,-3.8652,1.1446,4.246
54.9230,0.6675,-3.7655,1.1531,3.994
54.9440,-0.2186,-3.6897,1.1518,3.872
54.9850,-1.1171,-3.7538,0.9491,4.030
54.9850,-1.7972,-3.7420,0.6918,4.208
55.0000,-2.6649,-3.2000,0.6700,4.218
55.0200,-3.5414,-2.4010,1.0087,4.396
55.0390,-4.4999,-1.6287,1.6150,5.051
55.0600,-5.4364,-1.0751,2.1338,5.938
55.0800,-5.6957,-1.4759,2.1196,6.254
55.0990,-5.3375,-1.7509,1.3947,5.788
55.1350,-5.1735,-0.5826,0.4710,5.227
55.1370,-4.6389,0.2910,0.2808,4.657
55.1570,-4.0237,0.7121,0.6474,4.137
55.1750,-3.5930,0.5471,1.6306,3.983
55.1950,-3.5342,0.7909,2.4164,4.354
55.2140,-3.8159,1.6977,2.5066,4.871
55.2340,-4.3109,2.7950,1.8755,5.469
55.2680,-4.4620,3.2408,0.3115,5.523
55.2740,-3.9560,2.4478,-1.5257,4.896
55.2920,-3.0122,1.2388,-3.1395,4.524
55.3110,-1.7072,0.0881,-4.0763,4.420
55.3330,-0.4165,-0.1443,-3.9743,3.999
55.3500,0.9414,0.3436,-3.2261,3.378
55.3700,2.3003,1.1888,-2.2376,3.422
55.4020,3.8259,2.1304,-1.0806,4.510
55.4090,4.9149,2.6821,-0.1232,5.600
55.4270,5.4935,2.8594,0.3455,6.203
55.4470,5.5554,2.6700,0.1774,6.166
55.4670,5.3864,2.2984,-0.3478,5.867
55.4860,5.1322,2.3541,-0.7112,5.691
55.5060,4.7799,2.7874,-1.0651,5.635
55.5410,4.3122,3.4731,-1.4080,5.713
55.5440,3.7043,4.4382,-1.8195,6.061
55.5640,2.9194,5.6983,-2.1354,6.749
55.5820,2.3144,6.5975,-2.6720,7.485
55.6020,1.9538,6.5140,-3.1425,7.492
55.6220,1.3520,6.6663,-3.2202,7.526
55.6410,0.8134,6.3490,-2.8382,7.002
55.6610,0.2199,5.7895,-1.7297,6.046
55.7090,-0.6353,5.1848,-0.6321,5.262
55.7100,-1.3510,3.9623,0.0727,4.187
55.7190,-2.2067,3.3810,0.3761,4.055
55.7380,-3.2135,3.0164,0.7390,4.469
55.7570,-4.1458,2.6642,1.0557,5.040
55.7770,-4.3461,1.7313,0.5371,4.709
55.7980,-3.4998,-0.3419,-0.4603,3.546
55.8500,-2.4793,-2.5545,-1.1933,3.754
55.8510,-1.4095,-4.3093,-1.3289,4.725
55.8540,-0.4772,-5.1838,-0.8169,5.269
55.8730,0.1696,-5.1497,-0.1213,5.154
55.8930,0.5417,-4.5569,0.7194,4.645
55.9130,0.6907,-4.1211,1.6169,4.480
55.9330,0.5200,-3.8876,2.2825,4.538
55.9770,-0.0042,-3.5464,2.6101,4.403
55.9770,-0.7700,-3.5212,2.4678,4.368
55.9890,-1.5811,-3.5967,2.2463,4.526
56.0090,-2.2392,-3.5243,1.9830,4.622
56.0290,-2.8547,-2.6024,1.7242,4.230
56.0480,-3.4519,-1.2363,1.9647,4.160
56.0670,-4.4087,0.1781,3.0483,5.363
56.0870,-5.6640,1.0517,4.1397,7.094
56.1060,-6.0794,-0.1725,4.2387,7.413
56.1260,-5.0343,-1.9702,2.7278,6.055
56.1450,-4.4968,-1.4073,1.0883,4.836
56.1650,-4.0499,0.2062,0.5536,4.093
56.1840,-3.4559,1.3655,0.5986,3.764
56.2030,-2.4143,0.2773,0.7903,2.555
56.2230,-2.0590,-0.7988,0.3713,2.239
56.2420,-2.1172,-0.7137,-0.3232,2.258
56.2610,-2.2538,0.4537,-0.4835,2.349
56.2820,-2.3003,2.1047,-0.8258,3.225
56.3010,-1.7234,2.3337,-1.7013,3.363
56.3200,-0.8326,1.5566,-2.8411,3.345
56.3390,0.2790,0.4417,-3.6671,3.704
56.3580,1.2040,-0.3510,-3.8971,4.094
56.3780,2.1773,-0.7773,-3.2397,3.980
56.3970,2.8836,-0.6091,-2.1344,3.639
56.4190,3.1424,-0.3562,-0.9383,3.299
56.4360,3.2218,-0.2006,-0.2494,3.238
56.4550,3.0912,-0.3192,-0.1740,3.113
56.4740,3.0797,-0.6435,-0.7755,3.240
56.4940,2.8849,-0.5273,-1.3368,3.223
56.5130,2.4555,0.2613,-1.6874,2.991
56.5320,2.3044,1.2992,-1.9586,3.292
56.5520,2.3576,2.4285,-2.0094,3.936
56.5710,2.0783,3.9321,-1.9339,4.850
56.5910,1.7018,5.3175,-1.8676,5.887
56.6100,1.5740,5.8157,-1.9339,6.328
56.6300,1.6768,5.3186,-1.7693,5.851
56.6490,1.4690,4.9550,-1.2506,5.317
56.6690,0.5011,5.2280,-0.1766,5.255
56.6890,-0.7881,5.4500,0.5796,5.537
56.7080,-1.4861,3.8131,0.6113,4.138
56.7270,-1.6515,1.2245,0.3508,2.086
56.7470,-2.1023,-0.1767,0.4876,2.165
56.7870,-2.8929,-0.2803,1.2532,3.165
56.7880,-2.9401,-0.0483,1.9122,3.508
56.8050,-2.0748,-0.1196,1.6127,2.631
56.8230,-0.9690,-0.6449,0.6061,1.312
56.8430,-0.0411,-1.6015,-0.4734,1.671
56.8630,0.8222,-3.1170,-0.9646,3.365
56.8830,1.3287,-3.9092,-0.6867,4.186
56.9180,1.7955,-4.0287,-0.2086,4.416
56.9210,2.0704,-3.8409,0.5532,4.398
56.9400,2.3123,-3.6773,1.4393,4.576
56.9600,2.2136,-3.5031,2.0208,4.610
56.9790,1.7831,-3.5851,2.1386,4.539
57.0040,1.1792,-3.6714,1.8513,4.277
57.0530,0.6176,-3.5078,1.7109,3.951
57.0540,0.0079,-3.0932,1.6638,3.512
57.0570,-0.7184,-2.2916,1.6223,2.898
57.0770,-1.7891,-0.9593,1.8167,2.724
57.0960,-3.0427,0.3268,2.0333,3.674
57.1150,-3.9432,0.7702,1.5795,4.317
57.1340,-4.3956,0.3979,0.7673,4.480
57.1570,-4.5822,0.2132,-0.0095,4.587
57.1740,-4.7565,0.9752,-0.2426,4.861
57.2250,-4.7067,1.8522,0.2134,5.063
57.2260,-4.3920,1.6905,1.0410,4.820
57.2310,-4.0866,0.9433,1.3290,4.400
57.2500,-3.7493,0.5657,0.3720,3.810
57.2710,-3.4821,1.1274,-0.5020,3.694
57.2920,-3.3636,2.4119,-0.9290,4.242
57.3100,-2.8337,2.8342,-1.2087,4.186
57.3580,-1.8780,2.0320,-1.5368,3.165
57.3590,-0.7160,0.5658,-1.9142,2.121
57.3670,0.3601,-0.6591,-2.0088,2.145
57.3860,1.3400,-1.1706,-1.5861,2.384
57.4090,2.2075,-0.9767,-0.9493,2.594
57.4280,2.8920,-0.5349,-0.3569,2.963
57.4540,3.4972,-0.1292,-0.0598,3.500
57.4640,4.0509,0.0553,-0.0857,4.052
57.4890,4.3748,0.3423,-0.5350,4.421
57.5030,4.6225,0.5157,-0.9431,4.746
57.5220,4.7037,1.0403,-1.1878,4.962
57.5450,4.7338,1.8801,-1.1478,5.221
57.5610,4.5128,3.0799,-0.8724,5.533
57.5810,4.1315,4.4492,-0.6217,6.103
57.6260,3.4563,5.7700,-0.4914,6.744
57.6260,2.8901,6.4199,-0.6912,7.074
57.6380,2.5492,5.8628,-1.0013,6.471
57.6590,1.8272,5.4310,-1.1530,5.845
57.6780,0.9700,5.0973,-1.0166,5.287
57.6970,-0.3043,5.0881,-0.3785,5.111
57.7170,-1.4350,4.7760,0.2377,4.993
57.7590,-2.3922,3.8919,0.8517,4.647
57.7600,-3.3316,2.8816,1.1415,4.550
57.7750,-3.9705,1.6600,1.2923,4.493
57.7940,-4.2794,0.9168,1.3234,4.572
57.8140,-3.8468,0.2238,0.9289,3.964
57.8320,-3.0165,-0.5705,0.5240,3.114
57.8530,-1.8692,-1.8854,0.0434,2.655
57.8870,-0.8461,-3.4536,-0.3840,3.576
57.8980,0.0389,-4.7438,-0.4628,4.766
57.9110,0.8148,-5.5986,-0.2887,5.665
57.9300,1.3191,-5.5783,0.0218,5.732
57.9490,1.5123,-4.9580,0.4327,5.201
57.9680,1.4948,-4.2314,0.8927,4.576
57.9870,1.2563,-3.6645,1.1690,4.046
58.0070,0.7231,-3.5009,1.1504,3.755
58.0260,0.1261,-3.4898,0.9526,3.620
58.0460,-0.5225,-3.3252,0.8719,3.477
58.0650,-1.1676,-2.7595,0.7778,3.096
58.0840,-1.9342,-1.5483,0.7597,2.591
58.1030,-2.8681,-0.0437,0.9860,3.033
58.1240,-3.9313,1.4220,1.1265,4.330
58.1570,-4.3833,1.3990,0.9289,4.694
58.1620,-4.3687,0.6250,0.5910,4.453
58.1810,-4.2489,0.5996,-0.0217,4.291
58.2010,-3.9691,1.1313,-0.0754,4.128
58.2220,-3.3527,1.7549,0.5621,3.826
58.2400,-2.5997,1.3861,1.5517,3.330
58.2600,-2.1224,0.3979,2.0786,2.997
58.2930,-2.0060,0.0890,1.7967,2.694
58.2990,-2.1735,1.0575,1.4679,2.828
58.3170,-2.2444,2.6368,0.8787,3.572
58.3360,-1.8923,3.0596,-0.0976,3.599
58.3560,-1.2039,1.9727,-1.2869,2.645
58.3760,-0.2951,0.2608,-2.1089,2.145
58.4100,0.5784,-0.9642,-2.4894,2.732
58.4140,1.4197,-1.4773,-2.3281,3.101
58.4330,2.3076,-1.4781,-1.7439,3.248
58.4530,3.0100,-1.1014,-1.0073,3.360
58.4730,3.5605,-0.5874,-0.4605,3.638
58.4920,3.8913,-0.2619,-0.2733,3.910
58.5120,4.0773,-0.3353,-0.5336,4.126
58.5420,4.1930,-0.5110,-1.1259,4.372
58.5500,4.1186,-0.2177,-1.7378,4.476
58.5690,3.8828,0.8050,-1.9301,4.410
58.5890,3.3839,2.2277,-1.7942,4.431
58.6080,2.6023,3.7552,-1.6507,4.858
58.6280,1.7077,5.1136,-1.7434,5.666
58.6480,0.9362,5.8040,-2.1606,6.263
58.6680,0.4459,5.4557,-2.5489,6.038
58.7140,-0.1803,5.2093,-2.5590,5.807
58.7150,-0.7353,4.9703,-2.0577,5.429
58.7240,-1.6438,5.2162,-0.8959,5.542
58.7440,-1.7601,4.5191,0.3330,4.861
58.7640,-1.7542,2.2477,0.7059,2.937
58.7840,-2.0875,0.2599,0.9614,2.313
58.8030,-2.4292,-1.0321,1.3647,2.971
58.8510,-2.6917,-1.0652,1.5908,3.303
58.8520,-2.6885,-0.4087,1.4823,3.097
58.8600,-2.1706,-0.4414,0.9553,2.412
58.8800,-1.3261,-1.5290,0.1346,2.028
58.8990,-0.5800,-3.1020,-0.5539,3.204
58.9200,0.1021,-4.2609,-0.7060,4.320
58.9380,0.7859,-5.0729,-0.3675,5.147
58.9870,1.3208,-5.1291,0.0530,5.297
58.9870,1.7776,-4.8181,0.6399,5.175
58.9960,1.9570,-4.4364,1.3295,5.028
59.0150,1.8527,-3.9145,1.7684,4.678
59.0350,1.4575,-3.4403,1.8749,4.180
59.0550,0.7416,-3.1206,1.7175,3.638
59.0740,-0.0695,-2.5636,1.6406,3.044
59.1200,-0.9413,-2.0079,1.7534,2.827
59.1210,-1.8849,-1.3920,1.7503,2.925
59.1320,-2.9346,-0.3828,1.6230,3.375
59.1510,-4.0044,0.9506,1.2152,4.291
59.1720,-4.6345,1.4910,0.6535,4.912
59.1900,-4.7997,1.3646,0.1226,4.991
59.2100,-4.6515,1.5960,-0.4140,4.935
59.2560,-4.1462,2.0006,-0.2376,4.610
59.2560,-3.3280,1.6844,0.3377,3.745
59.2670,-2.6049,0.6453,1.3646,3.011
59.2870,-2.4886,0.3828,1.8626,3.132
59.3070,-2.6939,1.1756,1.9829,3.546
59.3260,-2.9772,2.7097,1.8188,4.418
59.3450,-2.7424,3.3404,0.6947,4.377
59.3660,-2.1960,2.4531,-0.8908,3.411
59.4010,-1.3025,0.7007,-2.3301,2.760
59.4040,-0.1620,-0.9525,-3.1237,3.270
59.4230,0.9467,-1.6016,-2.9861,3.518
59.4420,2.0717,-1.5613,-2.3729,3.516
59.4630,3.0430,-0.9517,-1.4872,3.518
59.4820,3.8637,-0.2679,-0.5939,3.918
59.5010,4.5373,0.1041,-0.0202,4.539
59.5360,4.8170,0.0664,-0.1452,4.820
59.5390,4.8017,-0.1381,-0.8482,4.878
59.5600,4.5816,0.0657,-1.5028,4.822
59.5780,4.2912,1.0167,-1.8834,4.795
59.5990,4.0808,2.1524,-1.8610,4.975
59.6170,3.5805,3.6337,-1.5784,5.340
59.6370,2.8140,5.1620,-1.3587,6.034
59.6690,1.9323,6.1957,-1.3100,6.621
59.6750,1.2090,6.0453,-1.5923,6.367
59.6940,0.3650,5.5536,-1.8764,5.873
59.7140,-0.4394,5.2281,-1.8680,5.569
59.7340,-1.2509,4.7253,-1.1697,5.026
59.7530,-1.9147,4.3548,0.0489,4.757
59.7730,-2.1622,2.9023,0.7368,3.693
59.8040,-2.3219,0.8910,1.0277,2.691
59.8100,-2.6330,-0.6751,1.2100,2.975
59.8300,-2.8470,-1.0108,1.2672,3.276
59.8510,-2.8670,-0.4754,1.1718,3.133
59.8690,-2.3580,-0.2662,0.9985,2.574
59.8890,-1.5086,-1.0355,0.3873,1.870
59.9080,-0.7720,-2.6482,-0.3665,2.783
59.9290,-0.1371,-4.0835,-0.6879,4.143
59.9710,0.4960,-5.1000,-0.6132,5.161
59.9720,1.0592,-5.3169,-0.3085,5.430
59.9850,1.3811,-4.9966,0.2927,5.192
60.0050,1.4637,-4.3195,0.9962,4.668
60.0240,1.2162,-3.4697,1.5316,3.983
60.0440,0.7802,-3.1561,1.7828,3.708
60.0630,0.2532,-3.4014,1.5359,3.741
60.0870,-0.3553,-3.5035,1.1206,3.695
60.1020,-0.9764,-3.0814,0.8699,3.347
60.1210,-1.5040,-2.3045,0.6292,2.823
60.1440,-1.9944,-1.2283,0.6734,2.437
60.1810,-2.7992,0.3734,1.0571,3.015
60.1810,-3.5872,1.8059,1.3022,4.222
60.1990,-3.8102,1.7619,1.1232,4.345
60.2270,-3.6957,1.0405,0.6164,3.889
60.2370,-3.4621,1.0299,0.1708,3.616
60.2570,-3.0092,1.6181,0.5155,3.455
60.2770,-2.4161,1.8756,1.3722,3.352
60.2970,-1.9133,1.1954,2.3805,3.280
60.3230,-2.0527,0.8109,2.7311,3.511
60.3640,-2.4124,1.0206,2.6154,3.702
60.3650,-2.8832,2.1518,2.0874,4.159
60.3730,-3.1104,3.0540,0.4799,4.385
60.3930,-2.7580,2.4762,-1.2895,3.924
60.4140,-1.9175,0.7282,-2.5731,3.291
60.4310,-0.7763,-0.8747,-3.4037,3.599
60.4660,0.2968,-1.5967,-3.2660,3.647
60.4710,1.2902,-1.3761,-2.3377,3.004
60.5720,2.3298,-0.7804,-1.2738,2.768
60.5720,3.1971,-0.2216,-0.4392,3.235
60.5730,3.8103,0.1740,-0.1146,3.816
60.5730,4.2441,0.3074,-0.4222,4.276
60.5730,4.4065,0.4695,-1.0665,4.558
60.5880,4.4718,0.8042,-1.7050,4.853
60.6060,4.3845,1.3571,-1.9949,5.005
60.6260,4.1208,2.4834,-1.9038,5.174
60.6450,3.7385,4.0285,-1.6328,5.733
60.6670,3.1188,5.4250,-1.3981,6.412
60.7510,2.3117,6.3213,-1.3618,6.867
60.7510,1.6390,6.3908,-1.6296,6.796
60.7520,1.1838,5.7230,-1.9002,6.145
60.7520,0.6204,5.6959,-1.7214,5.983
60.7680,-0.5535,5.6684,-1.4157,5.869
60.7800,-1.3713,5.6097,-0.2653,5.781
60.8000,-1.6861,4.2101,0.6623,4.583
60.8190,-1.7841,1.3747,0.7147,2.363
60.8380,-2.2569,-0.7186,0.3645,2.396
60.8580,-2.7469,-1.1177,0.0563,2.966
60.8770,-2.9777,-0.2306,0.4774,3.025
60.9000,-2.8547,0.6649,1.0243,3.105
60.9160,-2.4538,0.0287,1.1823,2.724
60.9360,-2.1385,-1.5982,0.8844,2.812
60.9550,-1.5494,-3.7377,0.3354,4.060
60.9750,-0.8926,-5.7457,0.3885,5.828
60.9940,-0.2374,-6.9412,0.7759,6.988
61.0140,0.3245,-7.0925,0.8327,7.149
61.0320,0.4315,-6.2968,1.0775,6.403
61.0520,0.2008,-5.2469,1.1471,5.375
61.0710,-0.2145,-4.4428,0.9679,4.552
61.0910,-0.7195,-3.9164,0.9034,4.083
61.1100,-1.2953,-3.5397,1.1378,3.937
61.1290,-1.9410,-2.9241,1.3660,3.766
61.1490,-2.6232,-2.0058,1.5430,3.645
61.1680,-3.3230,-0.9301,1.6639,3.831
61.1870,-4.1211,0.4141,1.6365,4.453
61.2070,-4.8172,1.6764,1.3472,5.275
61.2260,-4.8761,1.8333,0.8418,5.277
61.2460,-4.4399,1.5392,0.3801,4.714
61.2650,-3.8629,1.8840,0.3742,4.314
61.2850,-3.0110,2.1203,0.8323,3.776
61.3040,-2.0370,1.0944,1.6411,2.836
61.3250,-1.8035,0.3549,2.2623,2.915
61.3430,-2.1661,0.6975,2.4404,3.337
61.3630,-2.5611,1.8270,2.3548,3.930
61.3820,-2.7054,2.8047,1.4602,4.162
61.4020,-2.5257,2.7126,-0.2782,3.717
61.4220,-2.0674,1.6875,-1.8683,3.258
61.4420,-1.2970,0.3413,-3.0234,3.308
61.4600,-0.2697,-0.6666,-3.4320,3.506
61.4810,0.7252,-0.9112,-3.0711,3.284
61.5010,1.5895,-0.3773,-2.2847,2.809
61.5210,2.4169,0.3914,-1.4400,2.840
61.5390,3.2064,0.8397,-0.8767,3.429
61.5580,3.9988,0.7315,-0.7922,4.142
61.5780,4.5173,0.4434,-1.0125,4.651
61.5980,4.8305,0.3158,-1.2610,5.002
61.6170,4.8876,0.9269,-1.2104,5.120
61.6360,4.9881,2.3115,-0.9058,5.572
61.6540,4.9521,3.5974,-0.6740,6.158
61.6750,4.4677,5.0210,-0.6361,6.751
61.6950,3.5848,6.3768,-0.6535,7.344
61.7160,2.7049,6.9141,-0.7417,7.461
61.7350,1.9801,6.4492,-1.0619,6.829
61.7530,1.1255,5.8819,-1.4018,6.150
61.7730,0.2681,5.7090,-1.4621,5.899
61.7930,-0.7769,6.1432,-0.3592,6.203
61.8100,-1.7768,5.9171,1.1944,6.293
61.8310,-2.3431,4.0551,1.9319,5.066
61.8500,-2.9243,1.9161,1.8003,3.932
61.8690,-3.4378,0.1756,1.1566,3.631
61.8890,-3.7561,-0.6123,1.0205,3.940
61.9090,-3.2311,-0.8391,0.9573,3.473
61.9270,-2.1653,-1.2754,0.4807,2.559
61.9480,-1.1390,-2.2266,-0.3077,2.520
61.9650,-0.3260,-3.5583,-1.1111,3.742
61.9840,0.2495,-4.8578,-1.5981,5.120
62.0030,0.6294,-5.4307,-1.6959,5.724
62.0230,0.8960,-5.3907,-1.0384,5.562
62.0410,1.1083,-5.0476,-0.0113,5.168
62.0610,1.1040,-4.2757,1.0467,4.538
62.0820,0.7413,-3.1880,1.8096,3.740
62.1020,0.2117,-2.6855,2.1539,3.449
62.1200,-0.4991,-2.9220,1.6620,3.398
62.1420,-1.3068,-2.9652,1.0432,3.404
62.1610,-2.0469,-2.5062,0.7632,3.325
62.1800,-2.7668,-1.3849,0.6434,3.160
62.2010,-3.4381,-0.2699,0.6750,3.514
62.2180,-4.1135,0.6646,0.7422,4.232
62.2370,-4.4184,0.6906,0.5141,4.502
62.2570,-4.3624,0.2768,0.3225,4.383
62.2790,-4.1915,0.5612,0.5187,4.261
62.2960,-3.9299,1.3032,1.0974,4.283
62.3170,-3.3807,1.1916,1.8038,4.013
62.3340,-3.0830,0.6904,2.4135,3.976
62.3530,-3.2490,0.7145,2.2108,3.994
62.3730,-3.4795,1.2895,1.6925,4.078
62.3940,-3.4746,2.2453,0.7701,4.208
62.4130,-3.1045,2.3874,-0.4925,3.947
62.4310,-2.2433,1.2738,-1.7401,3.112
62.4520,-1.0025,-0.4557,-2.5041,2.736
62.4700,0.1871,-1.5637,-2.5922,3.033
62.4890,1.3061,-1.9455,-2.2150,3.224
62.5070,2.3147,-1.6342,-1.6250,3.266
62.5270,3.0421,-0.8662,-0.9287,3.297
62.5460,3.5740,-0.0105,-0.4345,3.600
62.5660,3.9341,0.1145,-0.6396,3.987
62.5850,4.1257,-0.2539,-1.3786,4.357
62.6060,4.1452,-0.3054,-1.8303,4.542
62.6250,3.9620,0.5998,-1.5468,4.295
62.6440,3.8721,2.3172,-1.1097,4.647
62.6650,3.7011,3.6362,-0.5864,5.222
62.6840,3.0479,5.0305,-0.3903,5.895
62.7040,2.1475,6.2677,-0.4933,6.644
62.7230,1.2976,7.0971,-0.8570,7.265
62.7410,0.8410,6.7606,-1.3864,6.952
62.7610,0.2996,6.0487,-1.7604,6.307
62.7800,-0.1041,5.1193,-1.4181,5.313
62.8000,-0.7571,4.8881,-0.5109,4.973
62.8190,-1.2662,4.7609,0.3542,4.939
62.8400,-1.5472,3.6429,0.8917,4.057
62.8570,-1.8717,1.7672,0.9617,2.748
62.8790,-2.2674,0.3061,0.8154,2.429
62.8970,-2.7453,-0.2062,0.7730,2.859
62.9170,-2.7249,-0.3161,0.8466,2.871
62.9340,-1.9802,-0.7479,0.6563,2.216
62.9540,-1.0258,-1.9444,0.0032,2.198
62.9740,-0.2348,-3.4766,-0.6835,3.551
62.9930,0.4282,-4.8483,-0.8951,4.949
63.0130,0.9078,-5.7299,-0.7780,5.853
63.0310,1.3361,-5.7810,-0.4875,5.953
63.0500,1.4673,-5.0179,-0.0615,5.228
63.0700,1.2808,-3.6211,0.6218,3.891
63.0890,0.9569,-2.4126,1.2019,2.860
63.1090,0.3569,-2.0794,1.5693,2.629
63.1280,-0.4021,-2.4687,1.4371,2.885
63.1470,-1.1340,-2.7906,0.9841,3.169
63.1660,-1.7727,-2.6815,0.6735,3.284
63.1870,-2.3404,-1.8730,0.3165,3.014
63.2070,-2.9640,-0.6392,0.4181,3.061
63.2250,-3.7128,0.7319,0.8974,3.889
63.2450,-4.1402,1.2432,1.1150,4.464
63.2640,-4.0353,0.6842,1.0670,4.230
63.2850,-3.7836,0.5793,0.8297,3.917
63.3030,-3.4653,1.3493,0.9017,3.826
63.3220,-2.9646,1.6551,1.2234,3.609
63.3420,-2.3894,0.6316,1.7295,3.016
63.3630,-2.1359,-0.6298,2.0478,3.025
63.3840,-2.3627,-0.5180,1.8893,3.069
63.4010,-2.6710,0.8127,1.8066,3.325
63.4200,-2.7626,2.3405,1.2529,3.831
63.4390,-2.4438,2.4088,0.1412,3.434
63.4590,-1.8680,1.2814,-1.2900,2.607
63.4780,-0.9304,-0.2061,-2.3467,2.533
63.4970,0.1096,-1.3307,-2.6590,2.975
63.5180,1.0397,-1.8338,-2.4709,3.248
63.5380,1.9234,-1.7609,-1.9608,3.263
63.5570,2.5151,-1.0963,-1.2893,3.032
63.5750,3.1440,-0.4010,-0.7834,3.265
63.5950,3.7014,-0.1013,-0.8658,3.803
63.6140,3.9589,-0.0658,-1.3397,4.180
63.6340,4.0557,0.0723,-1.8402,4.454
63.6530,4.1312,0.7603,-1.8458,4.588
63.6750,4.1033,1.9078,-1.5010,4.768
63.6920,3.9701,3.1867,-1.0481,5.198
63.7110,3.4845,4.6368,-0.9623,5.879
63.7310,2.6846,5.9616,-1.1493,6.638
63.7500,2.0527,6.4076,-1.4776,6.889
63.7700,1.4455,5.9510,-1.7401,6.366
63.7890,0.5283,5.9077,-1.7363,6.180
63.8070,-0.2250,5.7244,-1.1844,5.850
63.8290,-1.1322,5.8328,-0.1671,5.944
63.8480,-1.8472,4.9897,0.6480,5.360
63.8660,-2.3016,2.9494,1.0624,3.889
63.8860,-2.8023,0.8778,1.4322,3.267
63.9070,-3.1054,-0.2202,1.8391,3.616
63.9260,-3.0364,-0.1035,2.0119,3.644
63.9440,-2.1359,-0.2263,1.5036,2.622
63.9640,-1.1423,-1.1581,0.5789,1.727
