time,ax,ay,az,aT
0.0030,0.7674,-1.2039,1.1362,1.825
0.0170,0.7352,-0.9103,0.8153,1.426
0.0360,0.5621,-1.3720,0.4139,1.539
0.0550,0.9255,-2.6719,-0.4998,2.872
0.0740,0.9082,-2.8170,-1.4068,3.277
0.0940,0.2455,-1.3906,-1.7218,2.227
0.1130,-0.3078,-0.1212,-2.3995,2.422
0.1320,-0.4085,0.0531,-3.3609,3.386
0.1520,-0.6320,0.2145,-3.7526,3.811
0.1720,-1.6038,0.2678,-2.9199,3.342
0.1910,-1.8402,-0.0144,-2.5675,3.159
0.2100,-1.4531,0.1463,-1.3870,2.014
0.2300,-0.2980,0.0475,-0.1317,0.329
0.2490,0.4177,0.1740,-1.2086,1.291
0.2690,0.0951,0.2737,-1.0288,1.069
0.2880,-0.1892,0.2128,0.6198,0.682
0.3070,-0.7299,-0.2026,1.6912,1.853
0.3270,-1.3322,-0.2898,1.9143,2.350
0.3460,-1.1449,-0.3791,1.3208,1.789
0.3740,-0.3732,0.0925,2.1878,2.221
0.3850,0.3700,-0.2500,1.5591,1.622
0.4040,-1.4072,0.8145,2.7645,3.207
0.4240,-2.4915,1.4669,4.0428,4.970
0.4430,-2.6398,1.1198,4.8933,5.672
0.4620,-0.3265,-1.5937,4.2861,4.584
0.4820,-0.3396,-2.1217,4.2359,4.750
0.5010,-1.3034,-0.3802,-0.1117,1.362
0.5210,-3.6248,0.3447,1.8225,4.072
0.5400,-2.9757,-0.6710,4.6736,5.581
0.5590,-4.9963,0.2653,5.4989,7.435
0.5790,-5.2148,-0.6930,-1.7234,5.536
0.5980,-2.8922,-2.9370,-3.6471,5.504
0.6180,-1.2668,-2.6700,-2.5736,3.919
0.6370,-0.3486,-3.4075,-0.9953,3.567
0.6560,0.1525,-5.8206,0.2734,5.829
0.6750,1.3550,-6.7587,0.0984,6.894
0.6950,1.4179,-6.0142,-2.6336,6.717
0.7140,0.3654,-3.7331,-4.4907,5.851
0.7340,0.2153,-2.3784,0.0427,2.389
0.7530,0.7259,-1.1891,3.5630,3.826
0.7720,0.4152,0.2797,4.5785,4.606
0.7920,1.3697,0.2728,4.8349,5.033
0.8110,3.1737,2.2874,2.6987,4.753
0.8310,2.6379,1.2535,-1.9761,3.526
0.8510,0.3028,-1.7433,0.3054,1.796
0.8700,-0.2087,-1.9500,0.0735,1.963
0.8890,-0.9087,-1.2323,-0.1117,1.535
0.9080,-3.3212,-0.6661,-0.4478,3.417
0.9280,-6.8357,1.8657,-7.1173,10.043
0.9470,-6.5211,3.8358,-11.2057,13.521
0.9660,-3.7215,3.7001,-6.5547,8.397
0.9860,-0.9595,1.1319,-0.1857,1.495
1.0060,-0.4004,-2.4428,0.7372,2.583
1.0250,-1.5769,-4.4396,-5.9430,7.584
1.0440,-2.7880,-4.5821,-10.4063,11.707
1.0640,-1.9897,-4.1244,-12.4538,13.269
1.0830,-0.4856,-3.5956,-8.8206,9.538
1.1020,-0.6745,-1.7182,-3.3681,3.841
1.1220,0.1437,0.2224,2.6308,2.644
1.1410,-0.0021,1.6611,5.0343,5.301
1.1610,-1.0894,1.9734,3.8766,4.484
1.1800,-1.5061,1.7891,1.6773,2.878
1.1990,-1.6665,2.3021,1.1142,3.053
1.2190,-1.3218,2.8489,2.6966,4.139
1.2380,-1.1175,2.6886,5.0623,5.840
1.2570,-0.8003,2.2779,6.5904,7.019
1.2770,-0.9589,0.6774,5.9628,6.077
1.2960,-0.5465,-1.2045,2.4143,2.753
1.3150,0.1168,-1.3658,-2.8215,3.137
1.3350,-2.3252,2.0346,-7.1017,7.745
1.3540,-4.0153,3.6119,-7.3866,9.150
1.3740,-3.9146,2.7262,-2.7101,5.486
1.3930,-3.2695,0.4769,1.4448,3.606
1.4130,-1.7193,-1.0166,2.4086,3.129
1.4330,-1.4998,-0.7340,1.4700,2.225
1.4520,-2.5073,0.1931,-0.3707,2.542
1.4720,-2.8450,0.2829,-1.4399,3.201
1.4900,-2.0705,-0.2957,-0.3293,2.117
1.5100,-0.6683,-1.6458,1.9278,2.621
1.5290,0.3351,-2.5961,3.2288,4.157
1.5480,1.1244,-2.7947,3.7842,4.837
1.5680,0.2108,-1.5544,2.6132,3.048
1.5870,-0.6010,-0.6145,1.0078,1.325
1.6080,-1.0281,-0.2468,-0.1404,1.067
1.6260,-1.3740,0.1107,-0.7000,1.546
1.6460,-1.6796,0.1420,-0.9354,1.928
1.6660,-1.7260,0.1214,-0.8951,1.948
1.6840,-2.0042,-0.1132,-0.7096,2.129
1.7040,-2.3415,-0.7324,0.0305,2.454
1.7230,-1.9915,-1.1767,-0.8872,2.478
1.7420,-1.9758,-1.1530,-1.8267,2.927
1.7620,-1.2564,-1.1524,-2.8907,3.356
1.7820,-1.1116,-0.2700,-3.7085,3.881
1.8000,-1.5310,0.9831,-4.4914,4.846
1.8200,-1.0630,2.2138,-3.9469,4.649
1.8400,-0.2444,2.7004,-1.8699,3.294
1.8600,0.2305,2.1047,-0.3289,2.143
1.8780,0.2707,1.6079,0.6280,1.747
1.8980,0.2141,1.5143,1.5203,2.156
1.9170,0.3036,1.6417,2.7696,3.234
1.9360,0.6472,1.5583,3.8243,4.180
1.9560,0.7086,1.2954,4.2279,4.478
1.9750,0.3576,1.2044,4.1318,4.319
1.9950,0.2715,0.7661,3.4466,3.541
2.0140,0.3546,0.5055,2.3906,2.469
2.0340,0.3457,1.1237,1.3968,1.826
2.0530,0.4666,1.6236,0.5328,1.771
2.0720,0.8954,1.3675,0.1999,1.647
2.0920,1.3621,0.8605,0.4182,1.665
2.1110,1.0235,0.3893,0.1052,1.100
2.1310,0.2985,-0.2198,-2.3610,2.390
2.1500,-0.5974,-0.7815,-5.4735,5.561
2.1690,-1.5418,-1.4598,-7.2160,7.522
2.1880,-1.8311,-1.0564,-7.2266,7.529
2.2080,-2.0044,-1.0765,-5.6506,6.091
2.2270,-2.1410,-0.7204,-3.3739,4.060
2.2470,-2.7073,-0.2490,-1.7529,3.235
2.2660,-2.1336,0.9588,-2.6173,3.510
2.2860,-2.6371,2.0168,-2.9287,4.427
2.3050,-2.9127,1.7110,-1.1795,3.578
2.3250,-2.2627,1.2387,1.4761,2.972
2.3450,-1.8912,0.7252,4.6246,5.049
2.3630,-1.5832,0.5484,5.2777,5.537
2.3820,-1.4979,0.5438,4.7575,5.017
2.4040,-1.0867,2.1280,3.0374,3.865
2.4210,-0.9250,3.5607,1.9046,4.143
2.4410,-0.9666,2.9809,2.3343,3.908
2.4600,-0.0947,1.8032,2.9655,3.472
2.4800,-0.2815,0.8646,3.4822,3.599
2.4990,-0.4794,0.4900,2.3785,2.475
2.5180,-0.6680,0.7893,0.1483,1.045
2.5380,-1.6518,0.6093,-1.0873,2.069
2.5570,-2.1882,0.5579,-1.2584,2.585
2.5760,-1.2001,-0.3916,0.8050,1.497
2.5960,0.2941,-1.0743,2.5791,2.809
2.6150,0.5761,-1.7329,2.0862,2.773
2.6340,0.1748,-2.6480,0.2060,2.662
2.6540,1.1225,-5.0308,-2.7426,5.839
2.6740,3.6482,-9.7929,-6.7631,12.448
2.6930,0.0467,-10.7315,-5.9687,12.280
2.7130,-3.1971,-3.5308,-6.1741,7.798
2.7320,-1.8139,0.6260,-4.8240,5.192
2.7510,-0.2947,1.5826,-3.8239,4.149
2.7710,0.1505,1.4158,-2.8712,3.205
2.7900,0.7258,0.5072,-2.4429,2.598
2.8090,1.5323,0.3287,-1.8143,2.397
2.8280,1.9201,1.3775,-0.2966,2.382
2.8480,1.0285,2.5948,-0.0290,2.791
2.8670,0.4769,3.5263,-0.9971,3.695
2.8870,-0.0492,4.4079,-1.8815,4.793
2.9060,-0.7210,4.3444,0.0127,4.404
2.9250,-0.9797,3.0714,2.6071,4.146
2.9450,-2.5675,2.5872,5.6690,6.740
2.9640,-3.0447,1.8577,7.2564,8.086
2.9840,-3.1235,1.1495,5.6759,6.580
3.0030,-3.8086,1.7038,3.9634,5.755
3.0220,-2.8364,1.5453,0.6708,3.299
3.0420,-2.0674,1.3543,-0.4333,2.509
3.0610,-0.1491,0.6068,-1.1021,1.267
3.0810,0.7509,-0.7191,0.7951,1.309
3.1010,0.9536,-1.6474,2.2515,2.948
3.1190,0.9490,-2.2920,1.2867,2.795
3.1390,2.9154,-3.1895,-0.6296,4.367
3.1580,3.7876,-2.8583,-2.4065,5.320
3.1780,2.7145,-2.7958,-2.7362,4.761
3.1970,4.2311,-4.3502,-4.5886,7.608
3.2160,3.4024,-4.2934,-4.8613,7.324
3.2360,0.2396,-2.8794,-4.6011,5.433
3.2550,0.6559,0.0890,-1.2813,1.442
3.2740,0.4914,2.9631,-0.5902,3.061
3.2940,-1.2880,3.5339,-0.9504,3.879
3.3130,-2.7065,2.2640,-0.6695,3.592
3.3330,-3.1861,1.8656,-0.6159,3.743
3.3520,-2.6686,0.7910,-0.0938,2.785
3.3720,-1.1772,0.5860,1.1874,1.772
3.3910,1.1075,0.9939,3.6055,3.900
3.4100,1.5316,2.6986,0.7510,3.193
3.4300,-0.4819,3.3009,2.1491,3.968
3.4490,-1.5225,2.1585,2.1479,3.405
3.4690,-2.9394,1.1507,2.7958,4.217
3.4880,-3.9660,0.5094,2.6523,4.798
3.5100,-3.5469,0.3440,3.5248,5.012
3.5350,-2.1331,0.8530,1.0954,2.545
3.5460,-2.9721,0.5486,0.2085,3.029
3.5660,-3.0789,-0.2732,1.0832,3.275
3.5850,-2.5572,-0.8133,0.1227,2.686
3.6050,-1.9158,-0.6084,-0.7116,2.132
3.6240,-0.5032,0.5603,-2.1055,2.236
3.6440,1.5662,0.9417,-2.9211,3.446
3.6660,2.8397,2.1949,-1.5900,3.925
3.6910,2.6657,0.7524,-4.2178,5.046
3.7010,1.6520,-1.0275,-6.5661,6.848
3.7210,1.6486,-1.8963,-5.6486,6.182
3.7410,2.6953,-2.1538,-2.8899,4.501
3.7630,3.3690,-2.4637,3.4125,5.391
3.7910,0.5257,-0.7591,1.4881,1.751
3.7990,-0.1567,0.2768,0.1616,0.357
3.8180,0.2832,1.4686,0.9795,1.788
3.8380,0.8949,1.7151,2.3474,3.042
3.8570,1.6308,1.6216,3.0517,3.821
3.8760,2.7447,0.1466,3.3892,4.364
3.8960,1.8485,-0.2816,2.5864,3.191
3.9160,0.1911,0.0359,1.8574,1.868
3.9340,-1.2827,0.6714,0.5518,1.549
3.9540,-1.8106,-0.1214,0.0617,1.816
3.9730,-2.8044,-0.9476,-0.8646,3.084
3.9930,-4.3532,-1.2926,-1.1714,4.690
4.0120,-4.6747,-0.2133,-0.3365,4.692
4.0310,-5.5229,2.6156,-0.5343,6.134
4.0510,-2.7245,2.6491,3.5364,5.191
4.0700,-0.9041,0.0540,1.6548,1.886
4.0890,0.1116,-1.6033,0.3210,1.639
4.1090,0.5694,-1.4496,0.4101,1.611
4.1280,0.5872,-0.7265,-0.1970,0.955
4.1470,1.5541,0.6561,-0.3043,1.714
4.1670,3.0408,1.8639,-1.2631,3.784
4.1860,3.4318,1.9593,-0.7921,4.030
4.2050,2.7150,0.8200,0.2426,2.846
4.2250,2.6092,-0.1607,0.1539,2.619
4.2440,3.3384,0.9826,0.5756,3.527
4.2640,3.8622,2.4683,1.3205,4.770
4.2830,4.5881,3.0612,1.3847,5.687
4.3020,5.1245,1.9027,0.7476,5.517
4.3220,4.3987,-0.3344,-0.2443,4.418
4.3410,2.7999,-1.4657,-0.6513,3.227
4.3610,0.6654,-3.5427,-1.5593,3.927
4.3800,0.6657,-3.9986,-0.6554,4.106
4.3990,0.6300,-4.4606,0.7887,4.573
4.4190,-0.1346,-4.5151,1.6333,4.803
4.4380,-2.9684,-1.9623,-0.3292,3.574
4.4580,-3.0845,-1.7756,-0.1661,3.563
4.4770,0.3421,-3.5981,-2.8864,4.625
4.4970,-3.7469,-1.1816,0.6551,3.983
4.5160,-6.9599,-2.9140,0.4347,7.558
4.5360,-4.0242,-3.1927,-1.4569,5.339
4.5550,-2.0455,-1.8557,-1.4681,3.128
4.5750,-1.8124,-0.7724,-0.6517,2.075
4.5940,-0.7641,-0.8040,-0.4340,1.191
4.6130,-2.4316,1.0214,1.1352,2.871
4.6320,-0.5601,2.3546,1.9894,3.133
4.6510,-0.2560,1.1365,0.4987,1.267
4.6710,1.2122,3.0747,-0.4332,3.333
4.6900,3.4704,3.6088,-1.7394,5.300
4.7100,2.9777,4.8421,-2.1693,6.084
4.7290,2.6371,3.3937,-4.1345,5.964
4.7490,3.1389,3.8272,-3.6187,6.131
4.7680,1.9707,4.2106,-1.1830,4.797
4.7870,1.2828,1.8813,-0.1471,2.282
4.8070,1.2903,-0.7120,-0.1954,1.487
4.8260,1.0154,-0.6629,1.8174,2.185
4.8450,1.1711,0.2672,2.7257,2.979
4.8650,1.0009,0.8084,3.8088,4.020
4.8840,0.1473,0.0556,4.0532,4.056
4.9040,-0.3562,0.0284,3.1617,3.182
4.9230,0.2917,0.6719,1.8522,1.992
4.9420,1.5459,-0.9350,-0.0104,1.807
4.9620,0.1153,-2.6947,-0.4748,2.739
4.9830,-1.7007,-3.5147,-0.0442,3.905
5.0010,-2.4585,-5.0532,0.0289,5.620
5.0200,-2.3813,-5.4720,0.6087,5.999
5.0390,-2.4114,-4.1217,0.4956,4.801
5.0590,-3.2881,-2.6682,0.4074,4.254
5.0780,-3.6784,-1.5315,-2.7586,4.846
5.0980,-4.2747,-0.5042,-1.5431,4.573
5.1170,-3.9286,-0.6695,-0.7088,4.048
5.1370,-3.4417,-0.4484,2.0155,4.014
5.1560,-1.1910,0.6521,2.5153,2.858
5.1750,3.0115,0.2714,0.4571,3.058
5.1950,5.1189,0.2343,-1.5008,5.340
5.2150,8.4784,-0.9953,-3.5368,9.240
5.2340,8.3158,1.5704,-2.4885,8.821
5.2530,7.4196,-1.4485,-2.6104,7.998
5.2720,6.4152,-1.8827,-1.5020,6.852
5.2920,5.5422,0.1180,-1.5786,5.764
5.3110,3.6789,2.0311,-1.5369,4.475
5.3300,-0.9783,3.5002,-0.8013,3.722
5.3500,-1.4764,3.0089,1.4069,3.635
5.3690,-1.7891,2.5641,3.9014,5.000
5.3890,-2.0316,-0.5834,3.7061,4.266
5.4080,-3.3904,-1.4787,3.2542,4.927
5.4270,-4.9046,-1.0580,4.7611,6.917
5.4470,-3.0007,-3.3144,2.4300,5.089
5.4680,-0.1866,-3.6489,-0.2983,3.666
5.4870,-0.7404,-0.0188,-0.1784,0.762
5.5070,-3.6601,1.3983,2.5075,4.652
5.5260,-5.8826,1.0008,-1.4968,6.152
5.5440,-4.3217,-0.9082,-1.2644,4.594
5.5640,-3.7596,-0.7167,-1.7214,4.197
5.5840,-3.2462,-1.6501,-1.9034,4.109
5.6020,-2.5573,-1.6883,-0.1523,3.068
5.6220,-1.1888,-0.2485,0.8632,1.490
5.6410,0.2922,1.2935,0.3060,1.361
5.6610,0.9139,1.2345,-0.6037,1.650
5.6800,1.8182,2.0719,-1.4820,3.130
5.6990,4.2143,1.5546,-1.1853,4.646
5.7190,4.1991,1.1090,-1.8792,4.732
5.7380,2.6711,4.2950,-2.5998,5.687
5.7580,4.2704,1.5503,-3.1546,5.531
5.7800,3.7557,1.0206,-2.6853,4.728
5.8150,2.6646,1.1506,-0.3711,2.926
5.8170,1.5949,0.7123,2.3362,2.917
5.8360,-0.9228,1.4175,1.2942,2.130
5.8550,-1.2486,1.9196,2.1180,3.119
5.8740,-0.0426,1.7743,4.4845,4.823
5.8940,1.3041,1.1890,3.8880,4.270
5.9130,1.9642,-0.0754,3.3916,3.920
5.9320,1.7249,-0.5329,3.3844,3.836
5.9650,1.2146,-0.2239,2.8904,3.143
5.9710,0.0815,-0.3658,2.0572,2.091
5.9910,-1.7900,-1.2901,-3.8070,4.400
6.0090,-1.7455,-2.6649,-2.9885,4.368
6.0320,-3.9120,-2.5278,1.5936,4.923
6.0660,-3.8015,-2.5834,1.2455,4.762
6.0680,-2.8278,-2.0203,1.0300,3.625
6.0880,-2.1738,-2.8109,1.3791,3.812
6.1060,-1.6357,-3.3646,0.8561,3.838
6.1270,-0.6428,-3.1593,0.6783,3.295
6.1450,-0.3836,-1.7251,1.1887,2.130
6.1650,0.0111,-0.1470,1.6444,1.651
6.1850,1.5771,0.1882,0.1142,1.592
6.2030,3.5220,0.7048,-2.2756,4.252
6.2230,3.9984,1.9172,-2.3460,5.017
6.2430,3.4140,1.2063,-3.4121,4.975
6.2620,2.5246,0.8999,-3.1696,4.151
6.2820,1.0311,-0.4804,-2.4984,2.745
6.3010,-0.8179,0.7241,-0.2380,1.118
6.3200,-1.2531,1.7422,0.0087,2.146
6.3390,-1.1014,2.3906,-1.4040,2.983
6.3590,0.4436,1.3352,-1.7339,2.233
6.3780,1.3396,-0.2314,-3.1176,3.401
6.3980,-0.8193,0.4499,0.4561,1.040
6.4180,-3.9972,-0.4796,3.1298,5.099
6.4370,-5.7188,-1.4301,3.4448,6.828
6.4580,-4.0413,-0.2582,4.3560,5.948
6.4750,-2.5968,-1.3400,3.1459,4.294
6.4960,-0.7532,-1.4280,1.0639,1.934
6.5140,0.6754,-0.9778,-0.1555,1.199
6.5340,-0.5903,-1.0917,0.4286,1.313
6.5530,-0.7118,-0.4125,2.0896,2.246
6.5720,-0.6977,0.0510,2.3929,2.493
6.5910,-1.4486,-0.8046,1.1232,2.002
6.6110,-1.9528,-1.3216,-0.6279,2.440
6.6310,0.0682,-1.7017,-0.7546,1.863
6.6500,1.4657,-1.0439,-0.8764,2.002
6.6690,-0.8809,-0.0745,-0.4799,1.006
6.6900,-1.6987,1.7240,0.0704,2.421
6.7210,-1.1103,2.7804,1.2096,3.229
6.7270,1.9277,1.9513,1.5024,3.127
6.7460,5.2709,0.3917,0.4271,5.303
6.7670,7.3538,-0.6363,-0.8743,7.433
6.7860,6.8920,0.3061,-1.6936,7.104
6.8060,5.2558,0.7826,-1.2514,5.459
6.8260,3.7893,0.4591,-0.5628,3.858
6.8510,2.9581,-0.2540,-0.2616,2.981
6.8630,3.0076,-1.2007,-0.5280,3.281
6.8820,2.9180,-1.5232,-0.2514,3.301
6.9020,2.1961,-1.1802,0.4127,2.527
6.9210,1.7935,-0.6610,0.4217,1.957
6.9410,1.1969,1.6886,0.9894,2.294
6.9610,0.2831,3.7474,1.3821,4.004
6.9830,-0.6210,3.7590,1.6454,4.150
6.9990,-1.2542,2.8799,2.3373,3.915
7.0180,-2.6167,1.2224,1.4793,3.245
7.0380,-4.2685,-0.5398,0.5078,4.332
7.0580,-4.4747,-1.1914,0.5310,4.661
7.0810,-4.1866,-1.7709,-0.2269,4.551
7.1060,-3.9311,-1.5809,-0.6509,4.287
7.1160,-3.2324,0.9042,-0.0507,3.357
7.1350,-2.7489,0.4770,0.3041,2.806
7.1540,-1.3254,-1.4502,0.2515,1.981
7.1730,0.1113,-2.8264,0.5042,2.873
7.1920,-0.0706,-1.8018,0.4338,1.855
7.2120,0.9152,0.2496,0.5973,1.121
7.2320,2.4048,2.1912,-0.4678,3.287
7.2510,4.1814,1.7022,-0.8335,4.591
7.2700,4.1034,0.2284,-0.1219,4.112
7.2900,2.7117,-0.1552,1.1481,2.949
7.3110,1.8577,0.0308,1.2104,2.217
7.3280,2.1594,1.3656,-0.2108,2.564
7.3480,4.0197,1.5369,-0.7053,4.361
7.3670,3.2024,1.2347,-1.2027,3.637
7.3870,1.1687,0.6612,-0.3222,1.381
7.4060,-0.8065,0.0324,-1.0065,1.290
7.4250,-0.9166,-0.0809,-1.0770,1.417
7.4450,-0.7244,-0.4107,0.0325,0.833
7.4650,-0.4083,0.0350,-0.4864,0.636
7.4840,-0.8248,0.7006,-0.7923,1.341
7.5080,-1.7535,1.6869,0.5904,2.504
7.5220,-2.9390,2.4947,1.5210,4.144
7.5420,-3.5679,2.7217,1.8456,4.852
7.5620,-3.3923,2.2720,1.5970,4.384
7.5820,-2.9562,1.8171,0.2956,3.483
7.6000,-3.7028,0.8164,-0.2736,3.802
7.6200,-4.1727,-0.0141,1.6673,4.494
7.6430,-4.1930,-0.0323,2.5501,4.908
7.6590,-3.0799,0.4216,2.6323,4.073
7.6780,-2.4006,-0.0519,3.9132,4.591
7.6980,-3.2012,-0.8267,2.9534,4.433
7.7170,-4.7927,-1.3778,3.1095,5.877
7.7370,-5.5482,-2.0735,-14.8033,15.944
7.7550,-2.1099,1.2736,-7.7219,8.106
7.7740,-0.6492,1.7352,-0.0814,1.854
7.7940,2.6368,-0.7229,0.2381,2.744
7.8140,2.5796,-1.7298,-3.1119,4.397
7.8340,0.3951,-2.4900,-3.3963,4.230
7.8530,0.2181,-0.9755,-3.2620,3.412
7.8720,1.2267,1.0741,-3.2074,3.598
7.8980,1.6668,2.7701,-3.9658,5.117
7.9260,1.1159,1.9375,-3.1794,3.887
7.9300,0.8258,0.5927,-2.1608,2.388
7.9500,0.5809,0.5809,-1.0824,1.359
7.9690,-0.1758,0.6952,0.6807,0.989
7.9880,-0.0652,1.0873,0.9133,1.421
8.0080,-0.4577,1.9487,0.4912,2.061
8.0280,-1.2934,2.0986,1.1908,2.738
8.0470,-1.4168,1.3288,2.6398,3.277
8.0660,-0.7302,0.8741,3.1424,3.342
8.0870,-0.0775,0.2458,3.2984,3.308
8.1050,-0.1541,0.2807,2.9170,2.935
8.1250,-0.6725,0.6264,3.0368,3.173
8.1450,-0.3129,0.2903,3.5662,3.592
8.1670,0.2211,-0.2982,3.5190,3.539
8.1940,0.0753,-0.7041,2.7847,2.873
8.2040,0.3305,-0.4117,2.1866,2.249
8.2210,0.1701,-0.2913,1.6523,1.686
8.2400,0.4218,-0.4636,0.3123,0.700
8.2600,0.2790,-0.9039,-0.3826,1.020
8.2800,-0.1876,-1.4152,-1.3807,1.986
8.3000,-0.1087,-1.4760,-2.3497,2.777
8.3210,-0.0705,-1.4345,-2.1064,2.549
8.3390,0.0262,-1.1364,-2.6134,2.850
8.3570,0.7896,-1.4321,-3.9453,4.271
8.3760,0.3603,-1.3063,-4.9014,5.085
8.3950,-0.6553,-0.3149,-5.6786,5.725
8.4210,-0.7472,-0.0779,-4.8308,4.889
8.4340,-0.7469,0.7124,-2.8443,3.026
8.4540,-1.1122,0.7878,-0.2025,1.378
8.4740,-1.4882,0.3831,1.2292,1.968
8.4920,-1.9305,0.1461,2.0306,2.806
8.5120,-1.1964,-0.1390,1.6308,2.027
8.5430,-1.6954,0.2930,3.2245,3.655
8.5510,-2.0834,0.8305,3.0290,3.769
8.5710,-1.3534,1.2362,1.9422,2.671
8.5980,-0.9795,1.4396,0.8659,1.945
8.6090,-1.3684,1.5562,0.9145,2.265
8.6280,-1.4991,0.7304,1.9771,2.586
8.6480,-1.5601,0.9263,3.0134,3.517
8.6670,-1.2173,0.6546,3.3941,3.665
8.6870,-1.0630,0.1842,4.1821,4.319
8.7070,-0.1761,-0.3894,4.2520,4.273
8.7320,1.9599,-1.6238,2.1420,3.327
8.7440,1.1325,-1.1096,1.2087,1.994
8.7640,-0.8624,-1.1187,2.7335,3.077
8.7830,-0.6274,-0.8862,1.5344,1.880
8.8030,-0.2577,-0.8660,-2.1886,2.368
8.8250,-2.2301,-0.2315,-3.6614,4.293
8.8430,-2.3981,-0.1015,-2.7279,3.634
8.8660,-2.1584,-0.4975,-3.2064,3.897
8.8810,-4.0374,-0.4680,-1.3446,4.281
8.9010,-3.8370,-0.4880,-0.8905,3.969
8.9200,-1.0202,-0.8476,0.0600,1.328
8.9390,1.3584,-1.3693,0.8854,2.122
8.9590,-1.4803,-0.2839,1.8332,2.373
8.9840,-1.9409,0.3923,1.2392,2.336
9.0000,-1.2210,-0.3187,1.2160,1.752
9.0160,-1.1375,0.5331,0.8554,1.520
9.0360,-0.7835,2.3916,0.7429,2.624
9.0550,0.5465,2.8477,-0.1341,2.903
9.0750,1.5885,3.2510,0.8744,3.723
9.0970,1.9958,3.6239,0.9650,4.248
9.1160,1.6700,4.0094,0.0331,4.343
9.1320,1.6410,3.4929,1.9478,4.323
9.1520,0.6733,2.2436,3.7510,4.422
9.1710,1.0252,0.2842,2.5365,2.751
9.1910,2.4816,-0.2941,2.4498,3.499
9.2110,1.4531,0.7869,1.8328,2.468
9.2390,1.5785,0.9345,0.8161,2.008
9.2490,0.7334,0.7126,0.0573,1.024
9.2690,0.0065,0.7652,-1.7892,1.946
9.2880,0.1259,0.7705,-1.6937,1.865
9.3090,-0.0634,2.0711,-0.2940,2.093
9.3340,-0.5711,1.7074,0.0732,1.802
9.3460,-1.8830,2.1120,-0.9103,2.972
9.3650,-2.9289,3.0589,-2.2796,4.810
9.3850,-2.8843,2.5259,-3.8257,5.416
9.4040,-2.8123,2.6217,-2.6782,4.686
9.4250,-2.6402,2.7440,-1.2799,4.017
9.4430,-2.4511,2.6963,-0.4326,3.669
9.4650,-2.8236,2.1118,-1.4236,3.802
9.4840,-2.6851,0.6175,-2.9226,4.016
9.5010,-2.6107,-0.2633,-3.1629,4.110
9.5200,-2.2295,-1.1092,-2.0363,3.217
9.5390,-1.8000,-1.3256,-0.6150,2.318
9.5590,-0.9970,-1.7396,0.1984,2.015
9.5790,-1.3346,-1.4151,-0.6575,2.053
9.5990,-1.1938,-1.7798,-1.9027,2.866
9.6170,0.1669,-1.2368,-2.9538,3.207
9.6360,0.7293,-0.9973,-3.3978,3.615
9.6560,1.3269,-1.7815,-2.1739,3.108
9.6750,1.2985,-2.6203,-1.2696,3.188
9.6950,1.3568,-4.1429,0.0799,4.360
9.7140,1.1753,-3.8198,0.5833,4.039
9.7340,1.5740,-3.6170,0.4971,3.976
9.7530,1.4784,-2.5188,-0.2637,2.933
9.7720,1.5914,-2.3887,-1.3604,3.176
9.7910,0.9104,-2.0115,-1.5797,2.715
9.8110,0.0288,-0.7756,-1.6021,1.780
9.8300,-0.7126,0.7048,-1.2839,1.629
9.8500,-1.1605,1.6721,-0.1139,2.039
9.8690,-1.2146,3.4179,0.6426,3.684
9.8890,-2.2636,4.3890,1.5661,5.181
9.9080,-2.7511,4.0884,2.2517,5.418
9.9270,-3.5743,2.8518,2.6310,5.275
9.9470,-3.6534,2.0586,2.2995,4.783
9.9680,-3.5071,0.9764,2.0768,4.191
9.9860,-3.1830,-0.0433,2.9257,4.324
10.0050,-2.6695,-0.6233,4.0178,4.864
10.0240,-2.2627,-0.6361,3.0444,3.846
10.0440,-2.0421,0.0904,0.4289,2.089
10.0630,-1.9794,1.2971,-1.5571,2.833
10.0830,-1.7946,1.2754,-2.7554,3.527
10.1020,-1.6274,1.0222,-3.2266,3.756
10.1210,-1.0185,0.7238,-3.3170,3.545
10.1410,-0.0750,0.3014,-2.5207,2.540
10.1600,0.9517,-0.9444,-2.4976,2.835
10.1800,1.8450,-1.1423,-1.5003,2.638
10.2000,2.5032,-2.0025,-0.2840,3.218
10.2200,2.9039,-2.6782,-0.0251,3.950
10.2380,3.1435,-3.0035,0.0026,4.348
10.2570,3.0545,-2.7632,-0.8611,4.208
10.2770,3.1500,-2.2278,-0.7778,3.936
10.2960,3.1118,-1.4632,-0.6258,3.495
10.3150,2.8081,-0.5494,-0.5144,2.907
10.3350,1.5934,-0.0721,0.3599,1.635
10.3540,0.5317,0.9572,0.8043,1.359
10.3740,-0.6971,2.7008,-0.4646,2.828
10.3930,-1.2580,4.2074,-1.1507,4.540
10.4130,-1.4612,3.5175,-1.0182,3.943
10.4320,-2.9495,6.3572,0.1829,7.011
10.4510,-2.5594,5.5254,-0.4349,6.105
10.4720,-2.7442,4.9939,-0.8022,5.754
10.4900,-2.2900,3.0740,-0.5372,3.871
10.5090,-2.3967,1.6909,0.0831,2.934
10.5280,-1.6971,-0.4154,0.6397,1.861
10.5480,-0.7994,-1.7731,1.4694,2.438
10.5680,0.1500,-2.4165,1.4833,2.839
10.5870,1.4083,-1.2673,1.0894,2.185
10.6060,2.4859,0.2273,-0.3808,2.525
10.6260,2.6708,0.8979,-1.7051,3.293
10.6450,2.1031,2.0942,-5.3043,6.078
10.6650,3.6949,1.8767,-3.1750,5.221
10.6840,4.4327,1.4053,-1.0078,4.758
10.7030,5.0011,-0.0842,0.8364,5.071
10.7230,4.5883,-0.9911,0.6626,4.741
10.7420,4.4160,-1.8760,-0.2279,4.803
10.7610,3.8572,-2.2436,-0.8927,4.551
10.7810,3.0038,-2.8584,-0.8430,4.231
10.8000,2.0612,-2.9409,-0.5671,3.636
10.8210,1.2000,-2.7468,-0.3438,3.017
10.8400,0.0535,-1.9581,-0.4073,2.001
10.8580,-1.0557,-0.8955,-0.3713,1.433
10.8780,-1.7327,-0.2592,-0.2397,1.768
10.8970,-2.3816,0.6426,0.6335,2.547
10.9160,-3.0160,1.5719,0.6673,3.466
10.9360,-3.5178,3.2618,1.5958,5.056
10.9550,-3.6624,4.1071,1.6753,5.752
10.9770,-3.9606,3.9496,1.5926,5.816
10.9950,-4.6139,2.8435,1.8717,5.734
11.0160,-4.3408,1.4918,2.6772,5.314
11.0340,-4.2924,-0.0195,3.4827,5.528
11.0530,-3.6485,-1.4228,3.9883,5.590
11.0730,-2.9907,-2.0017,3.1994,4.815
11.0920,-2.5564,-1.5109,1.3351,3.256
11.1110,-2.1944,-0.7023,-0.0603,2.305
11.1300,-1.8368,0.2885,-0.8998,2.066
11.1500,-1.2421,0.4221,-1.3644,1.893
11.1700,-0.6545,0.5985,-1.9104,2.106
11.1890,0.1513,0.0805,-2.2665,2.273
11.2090,0.7106,-0.2882,-2.3284,2.451
11.2280,1.4404,-0.1245,-2.3026,2.719
11.2540,2.0912,-0.1280,-1.8107,2.769
11.2660,2.9544,-0.2688,-1.2510,3.220
11.2860,3.6029,-0.7274,-0.4184,3.699
11.3050,4.0466,-1.2256,-0.0768,4.229
11.3250,3.8118,-0.7120,-0.2871,3.888
11.3450,3.7017,0.1344,-0.5395,3.743
11.3660,3.7637,0.4997,-0.4136,3.819
11.3860,3.4275,1.7247,-0.5138,3.871
11.4020,2.8832,2.4168,-0.5594,3.803
11.4210,2.0022,3.2742,-0.3953,3.858
11.4420,0.8797,3.9224,0.1128,4.021
11.4610,-0.5319,4.5512,0.9293,4.675
11.4800,-1.1227,4.2932,1.2908,4.621
11.5000,-1.5670,4.1139,1.2324,4.572
11.5340,-2.0913,4.1002,1.5083,4.844
11.5400,-2.3754,3.2347,1.4367,4.263
11.5580,-2.8845,1.7592,1.1837,3.580
11.5760,-2.9381,-0.4626,0.5739,3.029
11.5960,-2.6456,-2.0035,0.2254,3.326
11.6150,-1.8451,-3.0202,1.1299,3.715
11.6350,-0.6052,-2.2420,2.0453,3.095
11.6550,0.4490,-0.2911,0.9774,1.114
11.6730,1.2719,1.3081,-0.6927,1.952
11.6940,2.2844,1.7508,-2.1310,3.581
11.7130,3.5609,1.2508,-2.3102,4.425
11.7320,4.5900,0.2266,-1.8170,4.942
11.7520,4.8041,-1.4947,-1.3584,5.211
11.7710,4.1988,-2.5091,-1.2232,5.042
11.7940,3.3604,-3.0923,-1.3472,4.761
11.8090,2.7332,-3.5010,-0.8074,4.514
11.8280,1.6228,-3.8704,-0.7776,4.268
11.8490,0.8947,-3.2397,-0.6538,3.424
11.8680,0.1928,-3.3845,-2.7697,4.378
11.8870,-0.9807,-3.1390,-2.8418,4.346
11.9060,-1.4075,-1.2616,-2.9486,3.502
11.9260,-1.8636,0.7865,-2.0992,2.915
11.9460,-2.1788,2.4851,-1.1851,3.511
11.9650,-2.7630,3.9550,0.2871,4.833
11.9840,-3.0847,4.2124,1.4178,5.410
12.0040,-3.8053,4.2338,2.3533,6.160
12.0240,-4.0726,3.7496,2.7163,6.166
12.0430,-3.6824,2.3306,3.2844,5.457
12.0630,-2.7114,0.9429,4.8779,5.660
12.0810,-1.6974,-0.2745,5.9165,6.161
12.1000,-1.0943,-0.3157,4.3538,4.500
12.1210,-0.9121,0.5147,2.1500,2.391
12.1390,-1.2054,1.5237,0.3154,1.968
12.1600,-1.3871,2.0109,-1.2101,2.726
12.1780,-1.1086,1.8753,-2.4221,3.258
12.1980,-0.5267,1.3994,-3.1865,3.520
12.2170,0.4622,0.1378,-3.8901,3.920
12.2360,1.1734,-0.3024,-3.4288,3.637
12.2550,2.1127,-1.1919,-3.1460,3.973
12.2750,3.1289,-1.7630,-2.5597,4.410
12.2960,3.9034,-2.1802,-1.6977,4.782
12.3140,4.6430,-2.2466,-1.0492,5.264
12.3330,5.2108,-1.8581,-0.6823,5.574
12.3550,5.4805,-1.0227,-0.4861,5.596
12.3720,5.4438,0.0334,-0.2764,5.451
12.3910,4.8977,1.0381,-0.2817,5.014
12.4110,3.4051,2.4292,-0.4657,4.209
12.4340,1.4697,3.7567,-0.5859,4.076
12.4490,-0.6093,4.5348,-0.4954,4.602
12.4680,-2.6228,4.6482,-0.4774,5.358
12.4900,-3.8221,4.6774,-0.7462,6.086
12.5080,-4.4699,4.4369,-0.7538,6.343
12.5280,-4.8278,4.3296,-0.0845,6.485
12.5500,-4.9232,3.4071,1.0398,6.077
12.5650,-5.1178,2.0226,2.2547,5.947
12.5850,-4.9379,-1.1285,3.5619,6.192
12.6050,-4.2283,-4.4089,3.9840,7.293
12.6250,-2.9619,-5.8951,3.7199,7.574
12.6440,-1.6002,-5.2504,2.7002,6.117
12.6640,-0.5579,-2.8735,0.8737,3.055
12.6840,0.3396,-0.7129,-0.8241,1.141
12.7020,1.0603,1.2993,-2.0019,2.611
12.7220,2.1306,2.0588,-2.6582,3.980
12.7430,3.0621,2.1624,-2.0118,4.254
12.7600,3.7995,0.9375,-0.6251,3.963
12.7800,4.0645,-2.7984,0.8528,5.008
12.7990,4.2105,-4.4210,1.9485,6.409
12.8220,3.8255,-3.5686,2.5407,5.816
12.8370,2.4983,-2.7535,0.7961,3.802
12.8560,0.6363,-0.5557,-2.9148,3.035
12.8770,-0.0616,0.9967,-5.3654,5.458
12.8960,0.4562,0.8371,-4.9353,5.026
12.9160,0.7687,2.0114,-4.3511,4.855
12.9340,1.1973,2.3565,-3.1146,4.085
12.9550,1.0521,3.3546,-2.6509,4.403
12.9730,0.3124,3.4168,-0.8163,3.527
12.9920,-0.2901,3.3353,2.9811,4.483
13.0120,-1.1819,2.6791,4.4800,5.352
13.0310,-2.0302,1.7727,4.6099,5.340
13.0510,-2.4196,1.5256,4.1010,5.000
13.0760,-2.2232,0.4632,3.2630,3.976
13.0890,-2.5290,-0.8917,3.1830,4.162
13.1090,-2.6630,-2.1907,4.3200,5.528
13.1280,-2.2300,-2.5360,4.6446,5.743
13.1480,-2.0056,-0.5760,3.2386,3.853
13.1670,-2.0534,0.9186,0.5403,2.313
13.1860,-2.1909,1.8523,-1.6824,3.326
13.2070,-2.5189,1.4790,-3.5685,4.612
13.2250,-1.7851,0.1948,-4.0175,4.401
13.2450,-0.3444,-0.2803,-3.7941,3.820
13.2650,0.9917,-0.3058,-2.7510,2.940
13.2840,2.2068,-0.6029,-1.0244,2.507
13.3030,1.7413,-1.0442,0.4220,2.074
13.3220,3.6930,-4.0273,-2.0355,5.831
13.3420,3.6438,-3.0068,-2.3189,5.263
13.3610,3.8662,-1.7836,-2.5145,4.945
13.3800,3.9278,-1.2894,-2.3465,4.754
13.4000,3.1617,-0.6541,-1.6815,3.640
13.4190,1.8120,-0.1446,-1.1242,2.137
13.4380,0.2378,0.3601,-0.5116,0.669
13.4620,-1.7122,1.3383,-0.0074,2.173
13.4930,-3.3790,1.5609,0.6115,3.772
13.5010,-4.4995,1.7190,1.2569,4.978
13.5170,-5.1629,1.7932,2.2919,5.927
13.5360,-5.0179,1.4717,2.9442,6.001
13.5550,-4.7718,1.3470,3.8790,6.295
13.5740,-3.7195,0.4785,4.4286,5.803
13.5960,-2.7305,-0.8581,4.3921,5.242
13.6290,-1.6224,-2.8825,3.0713,4.514
13.6330,-0.4232,-4.1951,2.0178,4.674
13.6520,0.7680,-3.1616,1.5617,3.609
13.6710,1.6492,-1.0269,1.1875,2.277
13.6910,1.7028,1.6900,0.5113,2.453
13.7110,1.0349,3.5986,-1.0277,3.883
13.7290,0.5403,4.0321,-2.9260,5.011
13.7490,0.7154,3.5082,-4.1463,5.478
13.7750,1.5036,2.4393,-3.4300,4.469
13.7880,3.9352,-0.6510,-2.1489,4.531
13.8060,2.8099,-0.0284,-1.7000,3.284
13.8260,1.8670,-0.7178,-2.1191,2.914
13.8460,2.1245,-0.6943,-3.0750,3.801
13.8660,2.5847,0.0329,-3.1109,4.045
13.8850,2.2017,0.5045,-2.0379,3.042
13.9060,0.9257,-0.7418,-3.0777,3.298
13.9350,0.1616,-1.2354,-3.8300,4.028
13.9420,0.5953,-0.2880,-2.9371,3.011
13.9620,-0.3939,0.6641,-2.0492,2.190
13.9820,-1.1422,1.5619,-1.5649,2.489
14.0050,-1.3524,2.1952,-1.6624,3.068
14.0210,-1.5589,2.7621,-0.0599,3.172
14.0410,-1.8761,2.7682,3.1715,4.609
14.0650,-1.6636,1.7267,5.9239,6.391
14.0780,-0.7811,-0.2065,6.7136,6.762
14.0980,-0.9402,-1.8898,5.9246,6.289
14.1180,-0.4689,-3.1278,5.2133,6.098
14.1370,0.0735,-3.0219,5.9596,6.682
14.1570,-0.5405,-0.8042,5.6396,5.722
14.1770,-1.4848,0.7136,3.3557,3.738
14.2000,-3.3311,0.8870,0.3629,3.466
14.2140,-4.2707,1.1067,-1.4368,4.640
14.2340,-3.9232,1.0748,-2.5281,4.789
14.2530,-2.8222,0.0784,-3.4698,4.473
14.2730,-1.0205,-1.2317,-3.7337,4.062
14.2920,1.1286,-1.5712,-2.9711,3.545
14.3120,1.6852,0.0028,-3.1967,3.614
14.3360,2.7019,0.5397,-3.6549,4.577
14.3500,2.9805,0.7884,-3.2191,4.457
14.3700,3.0995,0.6524,-3.3108,4.582
14.3890,2.5752,0.6709,-4.0225,4.823
14.4080,1.9129,1.9404,-2.8762,3.962
14.4280,2.9813,1.9476,-1.3424,3.806
14.4480,1.9106,2.0082,-1.7222,3.263
14.4710,0.4918,1.3221,-1.8824,2.352
14.4860,-1.7826,1.7210,-1.7970,3.061
14.5050,-3.2090,2.4700,-0.8063,4.129
14.5240,-4.1924,2.5691,1.6376,5.182
14.5450,-3.9611,1.9897,4.7984,6.533
14.5650,-3.4655,0.9132,4.5964,5.828
14.5870,-4.1971,1.0645,3.0831,5.316
14.6020,-4.4310,-0.5906,2.5626,5.153
14.6210,-3.9341,-1.5733,2.0287,4.698
14.6410,-2.6552,-2.8233,3.2432,5.054
14.6610,-1.0135,-4.7066,4.4938,6.586
14.6800,0.6954,-4.8414,4.6399,6.742
14.7000,1.2659,-3.2927,3.5907,5.034
14.7180,1.3798,-0.5553,1.6941,2.254
14.7380,1.0159,2.0075,-0.3192,2.272
14.7580,0.1170,2.7134,-2.4177,3.636
14.7770,0.5135,3.6298,-3.8796,5.338
14.7970,1.7679,2.7213,-3.5082,4.779
14.8150,3.5975,0.5328,-1.8995,4.103
14.8350,4.5177,-0.2583,-0.8098,4.597
14.8550,5.0779,-0.8407,-0.5454,5.176
14.8730,5.0414,-1.5018,-0.7198,5.309
14.8930,4.7802,-1.3458,-1.1670,5.101
14.9130,4.0033,-1.0868,-1.8170,4.529
14.9340,3.0639,-1.5367,-2.1461,4.044
14.9520,1.8131,-0.7435,-1.8676,2.707
14.9710,1.2702,-0.7788,-1.6398,2.216
14.9910,0.7169,-0.7322,-0.8847,1.354
15.0120,0.1012,-0.0383,-0.1298,0.169
15.0290,-1.2370,1.2385,0.6046,1.852
15.0480,-3.0932,2.8450,1.4263,4.438
15.0680,-4.2149,3.1181,1.5782,5.475
15.0870,-5.2305,3.1714,1.6523,6.336
15.1070,-5.8110,3.2639,1.5291,6.838
15.1270,-5.5172,2.1915,1.9457,6.247
15.1650,-4.9169,0.8305,3.3168,5.989
15.1660,-3.7084,-1.1568,4.6304,6.044
15.1850,-2.8204,-2.0708,4.3579,5.589
15.2070,-2.0859,-1.7145,2.6495,3.783
15.2400,-1.3960,-1.3011,1.2682,2.291
15.2420,-1.2571,-0.1171,0.3481,1.310
15.2660,-1.0519,0.6541,-0.7721,1.460
15.2810,-0.2719,0.4056,-1.8021,1.867
15.3010,0.4527,-0.0620,-2.2143,2.261
15.3200,1.2053,-0.4196,-2.5951,2.892
15.3420,2.1266,-1.0915,-2.7340,3.632
15.3590,2.8169,-1.0202,-2.4642,3.879
15.3780,3.7467,-1.1020,-2.2536,4.509
15.3990,4.3778,-1.2741,-2.0103,4.983
15.4170,4.7000,-1.4440,-1.7405,5.216
15.4360,4.8158,-1.3716,-1.4171,5.204
15.4560,4.4436,-0.4318,-1.0299,4.582
15.4770,3.4813,0.8681,-1.0103,3.727
15.4940,2.1037,2.0339,-0.8926,3.059
15.5140,-0.0023,3.1930,-0.7257,3.274
15.5330,-2.3855,3.5179,-0.2542,4.258
15.5520,-4.1515,3.4861,0.3056,5.430
15.5720,-4.9849,3.1244,1.3560,6.037
15.5920,-5.0531,2.7547,2.2170,6.167
15.6150,-5.2152,2.2327,2.9924,6.414
15.6300,-5.1798,1.0752,3.3006,6.235
15.6500,-4.7690,-0.2812,2.7657,5.520
15.6690,-3.5806,-3.1985,2.8304,5.573
15.6890,-1.8999,-5.3989,2.5247,6.256
15.7080,-0.2644,-5.1556,2.4314,5.706
15.7280,0.8486,-2.7682,1.4561,3.241
15.7500,1.2422,-0.3863,0.1742,1.312
15.7690,1.0969,1.7569,-1.1255,2.357
15.7850,1.1285,3.1848,-2.6233,4.278
15.8060,1.7784,3.3500,-3.8415,5.398
15.8250,3.3061,2.1798,-4.1407,5.730
15.8470,4.8225,0.9495,-3.1839,5.856
15.8870,5.3119,0.1138,-3.0502,6.126
15.8870,4.9732,-0.5650,-2.6111,5.645
15.9030,4.4554,-1.2672,-2.0723,5.075
15.9210,3.8875,-1.7796,-1.5840,4.559
15.9410,3.2608,-1.8900,-1.1496,3.940
15.9600,2.4898,-1.2175,-0.6178,2.840
15.9790,1.8412,-0.6317,-0.2673,1.965
15.9990,0.7623,0.4150,0.2057,0.892
16.0320,-0.1400,0.9787,0.5580,1.135
16.0370,-1.3399,1.9449,1.5118,2.804
16.0570,-2.2765,3.1957,2.4598,4.631
16.0760,-3.2016,4.1321,3.1401,6.098
16.0960,-3.7958,3.5318,3.1648,6.074
16.1150,-4.2888,2.2007,3.1996,5.786
16.1370,-4.2383,0.6427,3.2373,5.372
16.1550,-4.2194,-0.3052,3.7187,5.632
16.1830,-3.5406,-1.5233,4.7558,6.122
16.1920,-2.5033,-2.5357,4.7015,5.899
16.2120,-1.9557,-1.7221,2.8314,3.848
16.2310,-2.0201,-0.3233,0.9662,2.262
16.2510,-2.1941,1.0539,-0.4440,2.474
16.2720,-2.0580,1.4387,-1.4955,2.923
16.2900,-1.5856,1.1369,-2.5709,3.227
16.3220,-0.9160,0.6952,-3.4295,3.617
16.3280,0.0206,0.2141,-4.2663,4.272
16.3470,1.0661,-0.1984,-4.3840,4.516
16.3680,2.2969,-0.5691,-3.4129,4.153
16.3880,3.4122,-0.8536,-2.7134,4.442
16.4070,4.0106,-1.2956,-2.1653,4.738
16.4280,4.3230,-1.5336,-1.8326,4.940
16.4550,4.4643,-1.4044,-1.4800,4.908
16.4640,4.3587,-0.7837,-1.0778,4.558
16.4830,3.9367,0.5828,-0.7970,4.059
16.5030,3.3241,1.4895,-0.6103,3.693
16.5230,1.9017,2.0534,-0.4623,2.837
16.5420,0.0963,2.9625,-0.3099,2.980
16.5620,-1.6405,3.5338,0.0206,3.896
16.5910,-3.0533,3.9456,0.4836,5.012
16.6000,-3.7383,3.6465,1.0179,5.321
16.6190,-4.3726,3.3898,1.8501,5.834
16.6390,-5.2680,3.6327,2.5529,6.889
16.6580,-5.5967,2.2905,3.0366,6.767
16.6780,-5.4738,-0.2998,3.5918,6.554
16.6970,-3.9642,-3.9591,4.0360,6.905
16.7170,-2.3604,-6.2596,5.7375,8.813
16.7370,-0.6060,-5.7204,4.9640,7.598
16.7550,0.3195,-3.7429,2.8408,4.710
16.7750,0.7086,-1.1477,0.9737,1.664
16.7940,1.0252,0.8617,-0.6344,1.482
16.8130,1.4891,2.4340,-2.0140,3.493
16.8330,2.5411,2.8689,-2.7578,4.722
16.8530,3.8919,2.5653,-2.7158,5.395
16.8720,5.2431,2.3502,-1.6015,5.965
16.8910,6.1200,1.3693,-2.1703,6.636
16.9100,6.0287,0.7156,-2.8508,6.707
16.9290,5.2195,0.0052,-3.0534,6.047
16.9490,4.3581,-0.3106,-3.2910,5.470
16.9690,3.4589,-0.4592,-3.1537,4.703
16.9920,2.4684,-0.2219,-2.8597,3.784
17.0080,1.7563,0.1368,-2.2414,2.851
17.0270,1.0114,0.3093,-1.3668,1.728
17.0470,-0.0415,0.7486,-0.1618,0.767
17.0660,-1.3643,1.2663,1.3114,2.277
17.0850,-2.9311,1.8030,2.4226,4.208
17.1100,-4.0778,2.2102,3.1575,5.611
17.1230,-5.1513,2.4322,3.4621,6.666
17.1430,-6.0769,2.6911,3.2311,7.390
17.1620,-6.3038,2.1144,3.4984,7.513
17.1820,-5.5367,0.4654,4.7526,7.312
17.2020,-4.0062,-1.5195,6.1913,7.529
17.2210,-2.6590,-2.1955,5.7528,6.707
17.2460,-2.2169,-1.2790,3.7900,4.573
17.2600,-1.9535,-0.0828,1.5423,2.490
17.2790,-2.0591,1.1399,-0.0252,2.354
17.2980,-1.6367,1.5194,-1.6904,2.801
17.3170,-0.9265,1.2305,-2.9378,3.317
17.3380,0.0537,0.5914,-3.7446,3.791
17.3600,1.1405,0.0432,-4.0662,4.223
17.3750,2.2745,-0.5430,-3.9000,4.547
17.3950,3.2076,-0.6872,-3.4265,4.744
17.4150,3.8778,-0.8110,-2.7443,4.819
17.4340,4.4792,-1.1459,-2.0466,5.056
17.4540,4.8642,-1.3020,-1.5042,5.255
17.4740,5.1259,-1.2016,-1.1027,5.379
17.4950,4.8379,-0.6172,-0.8244,4.946
17.5110,4.0046,0.1387,-0.4309,4.030
17.5310,2.6856,1.6872,-0.6948,3.247
17.5500,0.9683,2.8615,-0.7106,3.103
17.5760,-1.0822,4.1813,-0.5260,4.351
17.5890,-3.0440,4.8458,-0.2258,5.727
17.6130,-4.3371,4.5843,0.8263,6.365
17.6500,-5.0238,3.5462,1.4480,6.317
17.6510,-5.4004,2.5207,2.4725,6.452
17.6670,-5.6813,1.3355,3.3311,6.720
17.6860,-5.8074,-0.5516,4.1225,7.143
17.7060,-5.2337,-3.1428,5.0374,7.915
17.7260,-3.5265,-6.2035,5.3932,8.945
17.7450,-1.5863,-7.0930,5.2081,8.942
17.7680,-0.3967,-4.5778,4.2235,6.241
17.8060,0.1311,-0.6322,1.9167,2.022
17.8060,0.6240,1.9197,0.0166,2.019
17.8210,1.3663,2.9919,-1.4220,3.583
17.8410,2.4057,3.2363,-2.1201,4.556
17.8610,3.1977,3.2058,-2.4311,5.139
17.8810,4.1477,1.8815,-2.8461,5.371
17.9010,4.8224,1.1856,-2.5976,5.604
17.9360,5.5009,1.1117,-2.9467,6.339
17.9380,5.5530,0.1621,-2.9192,6.276
17.9570,4.9984,-0.7385,-2.8237,5.788
17.9770,4.1450,-1.3518,-2.6929,5.124
17.9960,3.3264,-1.4315,-2.4968,4.399
18.0180,2.4927,-1.1028,-2.3018,3.568
18.0560,1.7629,-0.2874,-1.7959,2.533
18.0570,0.7211,0.8705,-1.0446,1.539
18.0740,-0.5767,1.8805,-0.1526,1.973
18.0930,-2.1740,2.5809,1.0655,3.539
18.1130,-3.9148,3.3939,2.2937,5.666
18.1330,-4.6027,2.6447,3.3637,6.284
18.1520,-5.0880,1.4173,4.4207,6.888
18.1910,-5.6391,0.6496,5.1602,7.671
18.1920,-5.6030,-0.3673,4.7500,7.355
18.2090,-4.8420,-0.5382,6.0079,7.735
18.2310,-2.9227,-1.2277,7.8391,8.456
18.2490,-1.4683,-1.6494,7.1108,7.446
18.2700,-1.2848,-0.5061,4.4831,4.691
18.2900,-1.4655,0.7678,1.8036,2.447
18.3240,-1.7382,1.8166,-0.2858,2.530
18.3270,-1.7502,2.1726,-2.0268,3.448
18.3460,-1.5205,1.9719,-3.2886,4.125
18.3650,-0.8428,1.4652,-4.2491,4.573
18.3860,0.2866,0.7673,-4.8278,4.897
18.4070,1.4708,0.0491,-4.8409,5.060
18.4250,2.4684,-0.6374,-4.0514,4.787
18.4430,3.2123,-0.8910,-3.4130,4.771
18.4730,3.7017,-1.0780,-2.8376,4.787
18.4810,3.9252,-1.1330,-2.2591,4.668
18.5000,4.2771,-1.0783,-1.8328,4.777
18.5210,4.4494,-0.6316,-1.4989,4.737
18.5410,4.2781,0.4264,-1.2972,4.491
18.5590,4.0532,1.4072,-1.1991,4.455
18.5790,2.9069,2.9516,-1.0411,4.272
18.6100,1.1130,4.4426,-0.7941,4.648
18.6170,-0.8247,5.4963,-0.1788,5.561
18.6360,-2.9861,6.0757,0.6922,6.805
18.6560,-4.3907,5.5703,1.4036,7.230
18.6750,-5.3917,4.5369,2.3862,7.440
18.6950,-5.9180,3.5510,3.1694,7.595
18.7150,-5.9139,2.1065,4.2341,7.572
18.7430,-5.6718,0.0953,4.8722,7.478
18.7530,-4.4215,-3.1188,4.5044,7.040
18.7730,-2.2499,-6.8659,5.5069,9.084
18.7920,-0.6409,-7.6791,6.7741,10.260
18.8110,0.6164,-5.7949,5.5151,8.024
18.8310,0.9016,-2.7207,3.4229,4.464
18.8500,0.8381,-0.0305,1.5211,1.737
18.8730,0.9715,1.8833,-0.0488,2.120
18.8880,1.5495,2.6047,-0.9841,3.186
18.9090,2.2176,2.2567,-1.3001,3.421
18.9270,3.0958,0.3145,-1.4803,3.446
18.9480,3.5638,-1.0844,-2.4450,4.456
18.9660,3.8099,-1.1947,-3.4459,5.274
18.9850,4.1730,-1.5384,-3.7416,5.812
19.0060,4.0901,-1.4442,-3.4308,5.530
19.0250,3.8725,-1.1147,-3.1543,5.117
19.0450,3.5171,-0.9739,-2.9747,4.708
19.0630,2.9907,-0.4323,-2.8314,4.141
19.0830,2.3086,0.5801,-2.6154,3.536
19.1020,1.3594,2.1158,-2.1880,3.333
19.1260,0.1032,3.4953,-1.3141,3.736
19.1670,-1.6567,4.5766,-0.0521,4.868
19.1680,-3.5016,5.1865,1.3436,6.400
19.1790,-4.6129,4.4646,2.6649,6.951
19.1990,-5.7342,3.6244,3.9875,7.869
19.2190,-5.9924,2.2561,4.8100,8.008
19.2380,-6.1163,0.9437,5.6465,8.378
19.2570,-5.3958,-0.8200,7.7261,9.459
19.2780,-3.7227,-2.3572,9.2723,10.266
19.3190,-2.6290,-2.1621,7.5214,8.256
19.3190,-2.6398,-1.0300,4.6790,5.470
19.3340,-2.8279,0.3994,2.1082,3.550
19.3540,-2.6344,0.9447,-0.0732,2.800
19.3740,-2.0658,0.8103,-1.8055,2.861
19.3960,-0.9724,-0.0354,-2.9917,3.146
19.4130,0.0988,-0.7513,-3.5154,3.596
19.4530,0.9604,-0.9835,-3.7876,4.029
19.4540,2.0961,-1.3901,-3.7176,4.489
19.4700,3.0679,-1.3432,-3.5224,4.860
19.4910,3.8442,-1.0954,-2.9725,4.981
19.5090,4.5816,-0.8387,-2.4593,5.267
19.5300,5.0836,-0.6772,-2.0392,5.519
19.5500,5.1203,-0.3368,-1.6176,5.380
19.5850,4.5013,0.4404,-1.3426,4.718
19.5880,3.3412,1.4348,-1.5082,3.937
19.6060,1.7144,2.5812,-1.7357,3.552
19.6260,-0.1600,3.9213,-1.6211,4.246
19.6450,-2.0645,4.5309,-1.0102,5.081
19.6660,-3.6297,4.2099,-0.3099,5.567
19.6840,-4.5433,3.2629,0.3011,5.602
19.7040,-5.0985,2.6379,1.3133,5.889
19.7340,-5.4227,2.2415,2.2701,6.291
19.7420,-5.7323,1.7637,3.1475,6.773
19.7610,-5.7523,0.1144,3.7862,6.887
19.7810,-4.2908,-4.0252,4.7086,7.535
19.8020,-2.1967,-7.3316,5.9023,9.665
19.8200,-0.3618,-7.1486,5.7820,9.201
19.8400,0.6259,-4.0718,4.0491,5.776
19.8710,0.9426,-0.5261,2.0962,2.358
19.8790,1.0540,1.8218,0.2740,2.123
19.8970,1.2320,2.9307,-1.4819,3.508
19.9170,1.6908,3.2867,-2.3353,4.372
19.9360,2.6771,2.4618,-2.4390,4.379
19.9560,4.2963,1.4798,-1.4324,4.764
19.9830,5.7030,1.1475,-1.4755,6.001
20.0050,6.0674,0.0894,-1.8023,6.330
20.0130,5.6580,-0.9061,-1.6978,5.976
20.0330,4.8998,-1.3353,-1.6590,5.343
20.0520,4.1129,-1.3243,-1.5997,4.607
20.0720,3.4364,-0.8357,-1.6146,3.888
20.0910,2.7137,0.1129,-1.7953,3.256
20.1120,2.0049,0.9663,-1.7393,2.825
20.1400,0.9343,1.7793,-1.2205,2.351
20.1500,-0.4798,2.6323,-0.3048,2.693
20.1700,-2.1894,3.4022,0.9838,4.164
20.1890,-3.6544,3.9687,2.1359,5.802
20.2080,-5.0804,4.4360,2.9712,7.370
20.2270,-6.1360,3.9531,3.7421,8.202
20.2520,-6.3676,1.9866,4.4558,8.022
20.2880,-6.6079,0.3210,5.4804,8.591
20.2880,-6.0403,-1.6402,6.9220,9.332
20.3050,-4.6513,-3.2863,7.4565,9.383
20.3230,-3.4977,-2.8935,5.7734,7.344
20.3440,-3.0107,-1.3151,3.2482,4.620
20.3630,-2.6482,0.1670,0.8589,2.789
20.3860,-1.9350,0.5532,-0.8860,2.199
20.4270,-1.0841,0.4249,-2.2559,2.539
20.4270,0.0143,-0.2144,-3.2356,3.243
20.4400,0.7568,-0.6722,-3.5641,3.705
20.4590,1.5487,-0.6668,-4.1341,4.465
20.4790,2.6181,-1.4204,-4.1984,5.148
20.4990,3.2925,-1.3686,-3.8118,5.219
20.5200,3.8898,-1.1720,-3.1532,5.143
20.5370,4.4515,-1.0013,-2.4331,5.171
20.5570,4.8523,-0.8139,-1.7122,5.209
20.5760,4.8979,-0.7431,-1.1433,5.084
20.5960,4.2623,-0.4397,-0.6876,4.340
20.6220,2.9439,0.4836,-0.5593,3.035
20.6340,1.1642,1.8758,-0.3387,2.234
20.6540,-0.9820,3.5022,0.1945,3.642
20.6730,-2.7161,3.9066,0.8839,4.839
20.6930,-4.0776,3.6171,1.4560,5.642
20.7120,-4.4288,2.4024,1.3911,5.227
20.7320,-4.6052,1.9796,1.5819,5.256
20.7510,-4.9148,2.3077,1.8948,5.751
20.7780,-5.1688,2.0570,2.5577,6.123
20.7900,-4.8031,0.4226,3.2919,5.838
20.8090,-3.1405,-3.6239,4.7585,6.756
20.8280,-1.1918,-6.0632,5.0575,7.985
20.8490,0.1710,-5.4251,4.3733,6.970
20.8670,0.7244,-2.7561,2.6558,3.895
20.8870,0.8233,0.4722,0.6659,1.159
20.9140,0.7578,2.9202,-0.7039,3.098
20.9260,1.5479,3.6913,-2.2325,4.583
20.9440,2.7851,3.4700,-2.7568,5.234
20.9640,3.8404,2.5978,-2.7269,5.379
20.9830,4.8157,1.1902,-2.1342,5.400
21.0080,4.9176,0.5062,-2.6453,5.607
21.0500,4.5978,-0.3876,-2.5452,5.270
21.0500,4.1774,-1.1316,-2.2198,4.864
21.0620,3.6396,-1.5553,-1.9796,4.425
21.0800,3.1884,-2.0390,-1.7752,4.180
21.0990,2.6385,-1.8841,-1.5547,3.596
21.1190,2.1166,-1.4236,-1.1781,2.810
21.1410,1.6011,-0.6231,-0.8404,1.913
21.1830,0.8317,0.5253,-0.2958,1.027
21.1830,-0.3306,1.7348,0.5774,1.858
21.1960,-1.8634,2.9056,1.7282,3.860
21.2160,-3.2226,3.6157,2.7054,5.548
21.2360,-4.0441,2.7895,3.3661,5.955
21.2550,-4.7523,1.5644,3.7923,6.278
21.2750,-4.6872,-0.0190,4.0506,6.195
21.2980,-4.0142,-1.5896,4.7055,6.386
21.3300,-3.0328,-2.2191,6.3736,7.399
21.3330,-2.1024,-1.1556,6.2985,6.740
21.3520,-1.8233,1.0504,3.9828,4.504
21.3710,-2.1587,3.1166,1.6744,4.144
21.3910,-2.5162,4.0490,0.0552,4.767
21.4130,-2.1321,3.6116,-1.3737,4.413
21.4310,-0.7619,2.4177,-2.5368,3.586
21.4490,1.0471,1.1579,-2.8071,3.212
21.4890,2.4019,0.7214,-2.4026,3.473
21.4890,3.3984,0.6792,-2.3492,4.187
21.5070,4.2011,0.0791,-2.2664,4.774
21.5270,4.7051,-0.8483,-2.1149,5.228
21.5470,4.8254,-1.6142,-1.9047,5.433
21.5650,4.8802,-2.2903,-1.7516,5.668
21.5860,4.6443,-2.5161,-1.5293,5.499
21.6190,3.9514,-2.0924,-1.4264,4.693
21.6250,2.9373,-1.0255,-1.5229,3.464
21.6420,1.7949,-0.1502,-1.6180,2.421
21.6620,0.5516,0.7593,-1.5523,1.814
21.6820,-0.9377,1.7324,-1.1637,2.288
21.7010,-2.2449,2.3217,-0.4977,3.268
21.7210,-3.3338,2.4018,0.2847,4.119
21.7540,-4.0067,1.8479,0.9097,4.505
21.7600,-4.4935,1.6174,1.6489,5.052
21.7780,-5.2405,2.3811,2.4416,6.253
21.7990,-5.5400,2.4390,3.1900,6.842
21.8180,-5.4628,1.5452,3.8717,6.872
21.8370,-4.2554,-0.1476,4.7619,6.388
21.8570,-1.9684,-2.1583,4.9302,5.731
21.8880,0.5299,-2.3488,3.7274,4.438
21.8950,2.9228,-0.9438,2.4556,3.932
21.9140,4.5669,1.1566,1.5494,4.959
21.9330,5.2967,1.8155,1.1429,5.715
21.9530,5.8393,0.9780,0.4574,5.938
21.9730,5.9177,-0.0927,-0.3286,5.928
21.9940,5.5531,-0.8470,-0.9486,5.697
22.0250,4.8607,-1.3572,-1.3606,5.227
22.0310,4.1210,-1.9981,-1.6786,4.878
22.0500,3.2487,-2.6728,-1.8600,4.600
22.0690,2.3604,-2.9221,-1.9477,4.231
22.0890,1.3783,-2.4055,-1.7710,3.290
22.1220,0.4185,-1.5380,-1.3743,2.105
22.1270,-0.3393,-0.7220,-0.5844,0.989
22.1470,-0.7440,-0.5479,0.3389,0.984
22.1670,-0.9570,-1.0567,1.2302,1.883
22.1870,-1.0943,-1.4925,2.1535,2.839
22.2060,-1.2985,-0.9558,3.3103,3.682
22.2250,-1.3489,1.1661,4.4274,4.773
22.2450,-1.7060,2.7242,5.0146,5.956
22.2770,-3.1073,2.6123,5.6101,6.925
22.2830,-4.8238,2.1301,5.5433,7.651
22.3020,-5.9512,1.6695,4.9772,7.936
22.3220,-6.6502,0.4564,4.2314,7.895
22.3410,-6.8547,-1.1780,4.0467,8.047
22.3610,-6.0390,-3.0635,4.4626,8.110
22.3800,-4.6309,-3.3250,4.3065,7.145
22.4100,-3.2920,-1.8933,2.8546,4.751
22.4180,-2.2578,0.6651,1.0123,2.562
22.4380,-2.1675,4.3040,-0.6289,4.860
22.4570,-1.6609,6.3336,-2.1922,6.905
22.4770,-0.0801,5.1660,-3.2185,6.087
22.4970,2.1911,2.2819,-3.4530,4.683
22.5330,4.3792,-0.5669,-2.7953,5.226
22.5350,5.8956,-2.3520,-1.8481,6.611
22.5540,6.5343,-3.5411,-0.9435,7.492
22.5740,6.4354,-4.5017,-0.3937,7.863
22.5940,6.3293,-5.4625,-0.1685,8.362
22.6310,6.1838,-5.5767,-0.1169,8.328
22.6320,5.7794,-4.1203,-0.1122,7.099
22.6520,4.8816,-2.2661,0.0114,5.382
22.6720,3.2027,-0.2602,0.2215,3.221
22.6910,0.6041,1.9478,0.2880,2.060
22.7100,-3.0030,3.0063,0.3767,4.266
22.7300,-6.1530,2.4331,0.1728,6.619
22.7490,-8.2924,0.6590,0.1630,8.320
22.7810,-9.4911,-2.5373,1.4110,9.925
22.7870,-8.9133,-6.3043,3.1221,11.355
22.8060,-6.9874,-6.6317,4.3950,10.589
22.8260,-4.4762,-4.1990,3.9305,7.288
22.8460,-2.0655,-2.1479,2.5641,3.931
22.8820,0.3567,-2.6350,1.2656,2.945
22.8840,2.5204,-5.6175,0.4018,6.170
22.9040,3.9415,-7.6029,-0.3565,8.571
22.9240,4.9396,-7.1052,-0.2808,8.658
22.9420,5.4477,-4.5470,0.3292,7.104
22.9630,4.9410,-0.2085,1.0450,5.055
23.0030,2.0414,4.8852,0.5536,5.323
23.0040,-2.7104,9.0206,-1.4579,9.531
23.0200,-6.9517,10.2523,-3.3018,12.819
23.0390,-9.2196,10.4990,-2.4474,14.185
23.0590,-8.2407,11.2096,3.1816,14.272
23.0780,-4.9372,10.4820,7.7947,13.964
23.0980,-2.0464,5.6749,7.7163,9.795
23.1350,-2.6491,-0.1607,6.7586,7.261
23.1360,-3.9318,-4.2434,4.9714,7.628
23.1550,-3.9250,-6.5270,3.5099,8.386
23.1750,-2.3705,-8.2106,2.3701,8.868
23.1940,0.0613,-8.6148,0.6877,8.642
23.2140,2.4093,-7.8779,-0.9630,8.294
23.2330,4.3097,-6.8779,-1.8171,8.317
23.2520,4.7809,-5.4788,-1.8255,7.497
23.2820,4.5733,-4.9755,-1.6544,6.958
23.2920,3.4736,-3.5885,-1.0049,5.094
23.3110,1.1348,0.2931,-0.0773,1.175
23.3350,-1.1161,2.9415,0.3886,3.170
23.3540,-3.7017,3.7532,-0.0579,5.272
23.3740,-5.5765,3.4925,-1.6465,6.783
23.3960,-5.4093,3.8325,-3.0777,7.309
23.4120,-4.4553,7.4917,-3.0923,9.249
23.4340,-3.1729,11.3526,-2.3372,12.017
23.4510,-2.0288,11.6786,-1.7975,11.989
23.4710,-1.9258,7.4322,-1.5656,7.836
23.4950,-1.6258,2.7401,-1.4655,3.507
23.5370,-0.2309,-0.6032,-0.2426,0.690
23.5370,1.2835,-2.2257,1.7187,3.091
23.5480,2.2752,-3.6677,3.0659,5.294
23.5670,2.5788,-5.3923,3.1489,6.756
23.5880,2.1928,-6.9498,3.5616,8.111
23.6070,2.5552,-8.1204,2.6879,8.927
23.6260,3.7084,-8.2662,0.8675,9.101
23.6580,5.1947,-7.2276,-0.0261,8.901
23.6640,5.9929,-3.9034,0.6617,7.183
23.6840,4.7855,0.5125,0.2025,4.817
23.7040,2.5693,1.3339,-1.3041,3.175
23.7230,-0.6342,2.6627,-3.5043,4.447
23.7580,-3.8493,5.1868,-4.3218,7.772
23.7630,-6.4270,7.9054,-2.5919,10.513
23.7810,-5.9802,7.2003,-0.0372,9.360
23.8010,-4.3535,5.3469,1.9067,7.154
23.8200,-2.1816,3.3967,2.3345,4.663
23.8400,0.0936,1.8156,1.5830,2.411
23.8590,1.8261,-0.1288,0.8646,2.025
23.8950,2.6809,-2.6321,0.7916,3.840
23.8980,2.7704,-4.7525,0.8256,5.563
23.9170,2.8121,-5.7173,0.9951,6.449
23.9370,2.6737,-5.3608,1.0986,6.090
23.9560,2.3226,-5.1087,0.8436,5.675
23.9920,1.7828,-5.2533,-0.2369,5.553
23.9980,1.2737,-5.5825,-1.5502,5.932
24.0140,0.8350,-5.3527,-2.2349,5.860
24.0340,-0.2739,-2.2466,-2.0052,3.024
24.0540,-1.7893,1.9592,-1.4101,3.005
24.0720,-4.1242,6.3660,-0.7872,7.626
24.0920,-5.9471,7.4716,-0.5640,9.566
24.1350,-7.3819,7.4904,-1.2617,10.592
24.1350,-7.3843,8.6414,-2.5183,11.642
24.1490,-4.6724,7.7253,-2.2551,9.306
24.1690,-0.6605,3.8198,-0.0650,3.877
24.1880,2.3361,0.1231,0.6098,2.417
24.2080,3.5233,-2.1010,0.8785,4.195
24.2280,3.9809,-3.4208,1.4364,5.442
24.2640,4.5471,-3.7621,2.0069,6.234
24.2660,5.1083,-3.3729,2.1437,6.486
24.2850,5.4237,-2.4773,1.9561,6.275
24.3040,4.9862,-1.1605,1.6273,5.372
24.3240,3.8613,0.1741,0.8697,3.962
24.3440,2.4954,1.4175,-0.1525,2.874
24.3630,1.4362,2.0424,-1.0429,2.706
24.3820,0.2510,2.1477,-1.0602,2.408
24.4010,-1.0825,1.8032,0.0222,2.103
24.4210,-2.0971,1.2818,0.6004,2.530
24.4400,-3.6857,1.1481,0.6800,3.920
24.4600,-5.4495,2.0108,0.6403,5.844
24.4800,-5.9389,2.2564,0.5316,6.375
24.5120,-4.9144,1.6162,0.8133,5.237
24.5180,-2.5994,1.0376,0.9283,2.949
24.5370,-1.2712,2.7429,0.1505,3.027
24.5570,0.8631,2.5093,-0.9002,2.802
24.5760,3.1392,1.0467,-2.2053,3.977
24.5960,5.0438,-0.9615,-2.9497,5.922
24.6160,5.9123,-2.5192,-3.0936,7.132
24.6530,6.1256,-3.2886,-2.3500,7.339
24.6550,6.1108,-3.3514,-1.4803,7.125
24.6740,5.7857,-2.6201,-0.7779,6.399
24.6920,4.6782,-1.0580,-0.4532,4.818
24.7130,3.4112,-0.4781,-0.7779,3.531
24.7320,2.3455,-0.6384,-1.4577,2.834
24.7510,0.9623,0.3059,-2.2017,2.422
24.7860,-0.3772,1.9706,-2.5894,3.276
24.7900,-1.1808,3.4436,-2.4670,4.398
24.8090,-2.3862,4.9496,-1.3743,5.664
24.8290,-3.6751,4.4240,0.1018,5.752
24.8480,-5.1737,2.4298,2.1611,6.111
24.8670,-6.6719,1.4026,4.4264,8.129
24.8870,-7.3451,2.2828,4.6661,8.996
24.9210,-5.9812,2.6441,2.8944,7.151
24.9260,-4.4906,3.5787,1.1596,5.858
24.9460,-3.4696,4.8126,-1.1604,6.045
24.9640,-1.3218,4.0277,-2.9504,5.165
24.9840,1.1257,0.6450,-3.1657,3.421
25.0090,2.5567,-2.2243,-2.4018,4.154
25.0610,3.0081,-3.8276,-1.8299,5.201
25.0620,3.4203,-4.7592,-1.7407,6.114
25.0620,3.9946,-4.7668,-1.7112,6.450
25.0810,4.6069,-4.6705,-1.7927,6.801
25.1000,5.0420,-4.5015,-1.7576,6.984
25.1200,4.8546,-3.5825,-1.6499,6.255
25.1390,3.8449,-1.9563,-1.5959,4.600
25.1600,2.1419,0.0613,-1.6019,2.675
25.2070,-0.2916,2.4687,-1.9714,3.173
25.2070,-2.5929,4.0507,-2.2717,5.319
25.2160,-4.4021,4.5239,-2.2465,6.700
25.2360,-5.8323,4.1061,-1.3051,7.251
25.2580,-6.9028,1.7825,1.2099,7.231
25.3000,-8.3182,0.0126,3.5043,9.026
25.3000,-7.4707,-2.3250,4.3782,8.966
25.3130,-5.3389,-4.3490,4.9505,8.481
25.3330,-3.2296,-4.9820,4.0096,7.164
25.3610,-1.4296,-4.0503,3.9155,5.812
25.3790,-0.6405,-1.4908,2.9698,3.384
25.3910,-0.4151,0.8576,1.8481,2.079
25.4110,0.4774,3.5358,-0.2815,3.579
25.4290,1.8451,4.5086,-2.0959,5.303
25.4490,3.5542,2.6948,-3.0421,5.399
25.4680,4.6465,0.4480,-3.3972,5.773
25.4870,4.6051,-1.3483,-3.2094,5.773
25.5070,4.1217,-2.5190,-3.1978,5.793
25.5300,3.7339,-3.2327,-2.4964,5.534
25.5480,3.2661,-3.0138,-1.3915,4.657
25.6010,3.0814,-2.5205,-0.5515,4.019
25.6020,3.1506,-2.2559,0.0778,3.876
25.6040,3.2048,-2.4574,0.1017,4.040
25.6230,2.5859,-1.9070,-0.1500,3.217
25.6430,1.1827,0.1197,-0.6225,1.342
25.6620,-0.5968,2.8893,-1.2340,3.198
25.6810,-1.8233,4.8949,-1.7100,5.496
25.7010,-2.3156,5.1582,-1.6778,5.898
25.7210,-3.4003,5.5059,-0.5472,6.494
25.7400,-4.2808,4.7779,0.7645,6.461
25.7640,-4.6080,2.8777,2.4400,5.956
25.7930,-4.3480,1.1291,4.2868,6.209
25.7990,-3.6986,1.2680,5.0228,6.365
25.8180,-3.4436,3.4339,2.6308,5.529
25.8370,-3.8233,6.3742,-0.4336,7.446
25.8560,-2.6321,5.6827,-3.1861,7.027
25.8760,-0.4051,1.6165,-3.8676,4.211
25.8950,1.0809,-1.3101,-2.9125,3.372
25.9150,1.8213,-3.1521,-1.7938,4.058
25.9350,2.4371,-3.8978,-1.3820,4.800
25.9540,3.0236,-4.5558,-1.0389,5.566
25.9730,3.5103,-5.0619,-1.0605,6.251
25.9920,3.8561,-4.9520,-1.0376,6.362
26.0160,4.0493,-4.9123,-1.0017,6.445
26.0630,4.0164,-4.3048,-0.8314,5.946
26.0630,3.6204,-2.8068,-0.6763,4.631
26.0690,2.5463,-0.1847,-0.6662,2.639
26.0890,1.2024,2.3964,-0.5840,2.744
26.1080,-0.6708,4.2884,-0.3976,4.359
26.1280,-3.2105,5.1899,-0.2250,6.107
26.1480,-5.3536,4.0104,0.1395,6.691
26.1830,-7.3492,1.1983,1.3001,7.559
26.1860,-9.1706,-1.3369,1.5825,9.402
26.2060,-8.0143,-4.5911,1.0649,9.297
26.2250,-6.1587,-6.0401,0.5863,8.646
26.2450,-4.4073,-4.2415,1.1740,6.228
26.2690,-2.9784,-1.0955,1.1480,3.375
26.3150,-1.4905,1.4827,0.2104,2.113
26.3160,-0.1887,3.8881,-0.8140,3.977
26.3210,0.8236,4.5788,-1.5037,4.889
26.3410,2.1884,3.1692,-2.0496,4.363
26.3610,3.6561,0.9298,-1.7323,4.151
26.3800,4.5707,-1.1217,-1.2657,4.874
26.4000,4.9695,-2.3237,-1.5314,5.696
26.4200,4.8269,-2.9496,-1.2264,5.788
26.4700,4.7390,-3.1231,-1.0480,5.772
26.4710,4.4083,-2.8465,-1.1054,5.363
26.4770,3.9049,-2.6811,-1.5884,4.996
26.4960,3.1803,-2.1594,-2.2176,4.438
26.5160,2.2509,-0.6433,-2.8788,3.710
26.5360,1.0421,1.2866,-3.1128,3.526
26.5560,-0.2453,3.2439,-2.9593,4.398
26.6020,-1.0156,4.0225,-2.3188,4.753
26.6020,-1.9545,4.7516,-0.8747,5.212
26.6120,-3.0795,5.1672,0.8000,6.068
26.6320,-4.4549,5.5869,2.6647,7.626
26.6520,-5.0671,4.4807,3.6025,7.664
26.6710,-4.1390,1.6298,4.8342,6.569
26.6910,-2.5290,-0.0954,7.3684,7.791
26.7370,-1.7764,0.9293,5.7765,6.115
26.7370,-2.4986,4.1078,2.5580,5.446
26.7480,-3.3646,6.7034,-1.1313,7.585
26.7680,-2.4747,4.7946,-3.2249,6.286
26.7880,-0.8760,1.3140,-3.9452,4.250
26.8100,0.4467,-1.3022,-3.2940,3.570
26.8270,1.0804,-2.8331,-2.4328,3.887
26.8760,1.6456,-3.4745,-2.2918,4.476
26.8770,2.4655,-3.8489,-2.1074,5.033
26.8840,3.2023,-3.8562,-1.8116,5.330
26.9040,3.9485,-3.6355,-1.5761,5.594
26.9230,4.5147,-3.2316,-1.4144,5.729
26.9430,4.8061,-2.4630,-1.4694,5.597
26.9620,4.7892,-1.3597,-1.8364,5.306
26.9820,4.2461,-0.0116,-1.8708,4.640
27.0170,2.6756,2.0578,-1.9300,3.888
27.0230,0.5321,3.8164,-1.8832,4.289
27.0390,-2.0296,4.5718,-1.5751,5.244
27.0590,-4.6533,3.5506,-0.9343,5.927
27.0780,-7.7907,1.8666,0.1977,8.014
27.0980,-10.2357,0.1586,0.5372,10.251
27.1180,-9.9087,-3.3455,0.1009,10.459
27.1400,-8.4130,-5.9948,0.4183,10.339
27.1630,-6.8689,-4.7629,1.9393,8.581
27.1760,-4.7812,-1.3036,3.3161,5.963
27.1960,-2.2442,0.5162,2.1641,3.160
27.2150,-0.3648,1.8262,0.7375,2.003
27.2340,0.9987,3.5080,-0.9769,3.776
27.2540,2.5075,3.0466,-1.9729,4.412
27.2940,3.9364,1.2019,-2.1724,4.654
27.2940,5.1128,0.0094,-1.8493,5.437
27.3110,5.8104,0.0267,-1.3379,5.963
27.3310,6.1013,0.1531,-1.3759,6.256
27.3500,5.7355,-1.1077,-1.1895,5.961
27.3700,4.9790,-2.4781,-1.0754,5.665
27.3890,4.0047,-3.1391,-1.3428,5.263
27.4260,3.0056,-2.6592,-1.9274,4.452
27.4270,1.9360,-1.4730,-2.0043,3.152
27.4470,0.9354,-0.0994,-1.6551,1.904
27.4660,0.1781,0.3610,-1.0551,1.129
27.4860,-0.9397,0.9388,-0.2220,1.347
27.5050,-2.1663,1.7039,0.8175,2.875
27.5290,-3.1819,2.5105,1.8567,4.458
27.5760,-3.5747,2.1208,2.0703,4.643
27.5760,-4.2072,1.0396,2.3748,4.942
27.5820,-4.9093,1.7871,2.8835,5.967
27.6030,-3.4972,1.0589,5.2268,6.377
27.6220,-2.1932,2.2574,6.3780,7.112
27.6410,-1.9815,4.6423,3.7651,6.297
27.6600,-2.8574,7.5929,0.3471,8.120
27.6920,-3.7063,9.0198,-3.0649,10.222
27.6990,-2.6710,6.2594,-5.7330,8.898
27.7180,-0.6780,2.4810,-6.2592,6.767
27.7390,0.6579,0.4583,-4.8993,4.964
27.7580,1.5420,-0.3849,-3.1672,3.544
27.7770,2.2415,-1.0720,-1.7064,3.014
27.8000,2.8499,-2.5351,-0.8928,3.917
27.8450,3.2484,-3.8143,-0.3604,5.023
27.8460,3.3056,-4.1553,-0.1766,5.313
27.8540,3.1507,-3.9061,-0.2846,5.027
27.8730,2.9777,-3.3666,-0.1886,4.498
27.8930,2.3776,-2.4003,-0.2716,3.389
27.9130,1.1445,-1.0806,-0.5055,1.653
27.9320,-0.4966,0.2752,-0.4895,0.750
27.9520,-2.6624,1.8726,-0.3283,3.272
28.0000,-4.9502,2.7291,-0.2172,5.657
28.0010,-6.4137,1.7352,-0.1579,6.646
28.0100,-7.0130,-0.1279,0.3039,7.021
28.0280,-6.5874,-1.2687,0.9741,6.779
28.0490,-4.6675,-3.1862,1.8230,5.938
28.0680,-2.7006,-3.2589,2.8812,5.120
28.0880,-1.4698,-1.7149,2.9132,3.686
28.1320,-0.9139,0.5130,2.1072,2.353
28.1330,-0.9271,1.8889,0.9931,2.327
28.1460,-0.4615,2.4467,-1.1115,2.727
28.1640,0.2000,2.5952,-2.8189,3.837
28.1850,1.3000,1.9016,-3.2671,3.997
28.2030,2.6234,0.8882,-2.6660,3.844
28.2240,3.3721,0.3273,-1.7251,3.802
28.2680,3.4948,-0.8607,-1.2441,3.808
28.2690,3.3747,-2.4482,-1.0804,4.307
28.2810,3.1627,-3.4185,-0.7724,4.721
28.3000,3.0574,-3.7925,-0.3703,4.885
28.3210,3.1364,-3.7683,-0.0147,4.903
28.3400,3.0023,-3.1621,-0.1237,4.362
28.3590,2.7500,-2.4619,-0.2975,3.703
28.3970,2.2378,-1.6869,-0.4381,2.836
28.4020,1.2657,-0.2889,-0.5697,1.418
28.4170,0.2007,1.5315,-0.8147,1.746
28.4360,-1.0386,3.6833,-1.1241,3.989
28.4550,-2.1822,5.1872,-1.1401,5.742
28.4740,-3.0374,5.1012,-0.4359,5.953
28.4950,-3.9161,4.7283,0.6219,6.171
28.5390,-4.0792,4.4181,1.9491,6.321
28.5390,-3.4280,3.2641,3.6089,5.952
28.5520,-2.9511,2.2767,4.2265,5.635
28.5720,-2.9517,1.2516,3.3949,4.670
28.5910,-2.6922,0.1541,1.1254,2.922
28.6110,-2.2111,0.1226,-1.2091,2.523
28.6310,-1.5636,1.2647,-2.9348,3.558
28.6690,-0.4256,1.7791,-3.3781,3.842
28.6700,0.8309,1.2416,-3.2438,3.571
28.6880,1.4177,0.3888,-3.7970,4.072
28.7080,1.6997,-0.4350,-4.2216,4.572
28.7270,2.1482,-1.0068,-4.1074,4.743
28.7470,3.2222,-1.7605,-3.3765,4.988
28.7660,4.1694,-2.6150,-2.1600,5.375
28.8060,4.6568,-2.6045,-0.7956,5.395
28.8060,4.3185,-2.3087,-0.0419,4.897
28.8240,3.2555,-1.7246,0.2838,3.695
28.8440,0.6533,0.3458,0.5973,0.950
28.8630,-1.2901,0.2929,-0.2268,1.342
28.8820,-3.0209,-0.0848,-1.2719,3.279
28.9020,-5.4359,3.0195,-0.8612,6.278
28.9310,-6.6710,6.4177,-0.4561,9.268
28.9400,-5.1286,3.8056,-3.4179,7.243
28.9590,-2.2380,0.7929,-6.6939,7.103
28.9800,-0.2970,4.9396,-6.6213,8.266
28.9990,1.7276,7.3728,-3.0541,8.165
29.0180,1.2346,1.9334,0.2414,2.307
29.0380,-0.2553,-7.3442,3.1921,8.012
29.0560,0.0998,-8.6841,9.1841,12.640
29.0760,0.3565,-4.4443,13.2738,14.003
29.0950,-2.0933,-4.9540,9.6249,11.026
29.1140,-5.0997,-5.6943,5.4414,9.383
29.1340,-5.9992,-4.6167,4.3268,8.719
29.1530,-5.1199,-3.8516,4.3844,7.763
29.1730,-3.2048,-2.8511,4.2703,6.053
29.1920,-1.4612,-2.2640,3.2788,4.244
29.2110,-0.5837,-3.3680,1.4793,3.725
29.2310,-0.3595,-4.9995,-0.6312,5.052
29.2500,-0.4091,-5.8091,-2.1103,6.194
29.2700,-0.2652,-5.4002,-2.5301,5.969
29.2900,0.4474,-3.9153,-1.9384,4.392
29.3110,0.7307,-3.0561,-1.6518,3.550
29.3280,-0.0774,-2.1624,-1.5674,2.672
29.3470,-1.0566,-0.3594,-1.3976,1.788
29.3660,-2.4448,1.0294,-1.5711,3.083
29.3860,-4.0870,1.3930,-2.5563,5.018
29.4050,-5.0831,1.6744,-3.6010,6.450
29.4250,-5.3816,2.8148,-4.2749,7.427
29.4450,-4.9975,4.2329,-4.2457,7.805
29.4680,-4.1680,5.3740,-3.9483,7.864
29.4830,-3.1961,4.9677,-2.9789,6.616
29.5030,-3.0520,3.9485,-1.0763,5.105
29.5220,-3.1879,3.1716,0.8669,4.580
29.5410,-2.7499,2.1774,1.8030,3.944
29.5610,-1.7914,1.7389,1.9640,3.177
29.5800,-0.6601,1.9328,1.4297,2.493
29.6000,0.0824,1.9096,0.3932,1.951
29.6190,0.9839,1.4109,0.1653,1.728
29.6380,1.7801,0.7981,-0.3112,1.975
29.6580,2.6387,0.0662,-0.7628,2.748
29.6770,3.3479,-0.6670,-1.0790,3.580
29.6970,3.8533,-1.0064,-1.4760,4.247
29.7160,3.8366,-0.7528,-1.8887,4.342
29.7360,4.0692,-0.4683,-1.9875,4.553
29.7550,4.4152,-0.1198,-1.5641,4.686
29.7740,4.6009,0.4238,-1.0183,4.731
29.7930,4.3455,1.2267,-0.8031,4.586
29.8130,3.9658,1.8433,-0.7368,4.435
29.8320,3.3075,2.7506,-0.6551,4.351
29.8520,2.7438,3.3086,-0.8873,4.389
29.8710,2.1611,3.4144,-1.3465,4.259
29.8900,1.5382,3.5380,-1.6855,4.210
29.9100,0.8548,4.3280,-1.9615,4.828
29.9290,0.2175,5.2833,-1.9039,5.620
29.9480,-0.4219,5.6625,-1.5732,5.892
29.9680,-1.0980,5.3193,-1.2464,5.573
29.9870,-2.0226,5.0924,-0.9696,5.564
30.0070,-2.8018,3.9148,-0.2776,4.822
30.0260,-2.9956,1.3373,0.4005,3.305
30.0450,-2.6172,-1.6805,0.7955,3.210
30.0660,-2.1366,-3.3684,1.2248,4.173
30.0840,-1.7796,-3.1515,1.4461,3.897
30.1040,-1.3251,-2.0631,1.3242,2.787
30.1240,-1.0192,-0.7246,0.8858,1.532
30.1430,-0.9740,0.0304,0.2702,1.011
30.1620,-0.6966,-1.0421,-0.0678,1.255
30.1810,-0.1355,-2.8059,-0.4722,2.849
30.2010,0.6792,-4.6130,-0.9776,4.764
30.2200,1.4098,-5.7993,-1.3471,6.118
30.2400,2.0009,-5.9791,-1.4426,6.468
30.2590,2.5516,-5.3769,-1.4015,6.114
30.2800,2.8723,-4.7313,-1.3751,5.703
30.2980,3.0066,-4.0997,-1.1905,5.222
30.3170,2.8536,-3.6154,-0.9610,4.705
30.3370,2.4915,-3.4342,-0.7916,4.316
30.3560,1.7995,-2.8884,-0.6794,3.470
30.3750,0.6752,-1.6848,-0.4232,1.864
30.3950,-0.7653,-0.6829,-0.0618,1.028
30.4140,-2.4804,0.1884,0.2093,2.496
30.4330,-4.1120,0.9973,0.3196,4.243
30.4530,-5.2943,1.8808,0.4646,5.638
30.4720,-6.0528,3.0686,0.3026,6.793
30.4920,-6.4441,4.2164,-0.2377,7.705
30.5120,-6.6183,4.7247,0.2740,8.136
30.5310,-6.8778,3.7651,2.2421,8.155
30.5510,-6.9035,0.7627,3.6547,7.848
30.5770,-6.4160,-1.3720,3.8981,7.632
30.5890,-4.6905,-1.2003,3.8618,6.193
30.6080,-3.1135,0.9252,3.8198,5.014
30.6280,-1.5835,1.7916,3.6165,4.336
30.6470,-0.4246,1.5140,3.0173,3.402
30.6710,0.3095,0.0205,1.9567,1.981
30.7150,1.4106,-2.1094,0.8014,2.661
30.7150,2.4362,-4.2335,-0.1981,4.888
30.7260,2.7281,-6.0637,-0.3489,6.658
30.7450,2.3855,-7.1306,0.0772,7.519
30.7640,1.8117,-6.5473,0.7217,6.832
30.7830,0.9924,-3.5855,1.6952,4.088
30.8020,0.1319,0.8560,2.2256,2.388
30.8240,-0.3136,4.1958,1.3732,4.426
30.8410,-0.1307,6.2201,-0.0333,6.222
30.8610,0.0912,7.4650,-2.1636,7.773
30.8800,0.6920,6.9771,-3.7335,7.943
30.8990,0.9099,6.8635,-4.9008,8.483
30.9200,1.6110,7.4733,-4.3988,8.820
30.9380,1.5700,8.7638,-2.1169,9.152
30.9570,1.9637,8.7212,-0.4604,8.951
30.9770,2.0405,8.5390,0.2430,8.783
30.9960,1.8562,7.9417,0.9053,8.206
31.0150,1.0764,7.3773,1.4715,7.599
31.0350,0.8222,5.0753,1.3981,5.328
31.0540,0.7223,1.4617,0.5047,1.707
31.0740,0.3494,-1.4105,-1.0379,1.786
31.0930,-0.8411,-1.7079,-1.0610,2.179
31.1120,-2.1107,0.0733,-0.4017,2.150
31.1320,-3.0011,1.8555,-0.0045,3.528
31.1510,-2.8432,1.4616,-0.9067,3.323
31.1710,-2.2753,-0.4532,-2.2542,3.235
31.1900,-1.6688,-2.4763,-3.0790,4.289
31.2090,-0.9551,-3.7326,-2.9632,4.861
31.2290,-0.1586,-4.4840,-2.2823,5.034
31.2480,0.4282,-4.7032,-1.3979,4.925
31.2680,0.8962,-4.9086,-0.5331,5.018
31.2870,0.9830,-5.1403,-0.2073,5.238
31.3060,0.7294,-5.4129,-0.1230,5.463
31.3260,0.2411,-5.1879,-0.2152,5.198
31.3450,0.0414,-4.6762,-0.0247,4.676
31.3650,-0.3062,-3.8406,0.4396,3.878
31.3890,-0.8382,-3.0202,0.9412,3.273
31.4030,-1.6825,-2.2244,1.4732,3.154
31.4230,-3.0123,-0.6460,1.8703,3.604
31.4420,-4.5445,0.9630,2.0169,5.064
31.4610,-5.5496,1.1314,1.6575,5.901
31.4810,-6.0208,0.7713,0.9837,6.149
31.5000,-6.3281,1.0964,0.8713,6.481
31.5200,-5.6011,0.8596,1.3112,5.816
31.5400,-4.3961,-0.2118,2.6209,5.122
31.5590,-3.5644,-1.3618,3.7791,5.370
31.5780,-3.3697,-1.6200,4.2093,5.630
31.5970,-3.5557,-0.4597,3.7848,5.213
31.6180,-3.7369,1.3966,2.7472,4.844
31.6360,-3.6329,2.2643,1.0301,4.403
31.6550,-3.2479,1.8078,-0.7015,3.783
31.6760,-2.3344,0.4292,-2.3607,3.348
31.6960,-1.4320,-0.7313,-3.2329,3.611
31.7180,-0.2608,-1.6082,-3.4757,3.839
31.7590,0.5545,-1.9784,-3.2615,3.855
31.7590,1.2694,-1.6186,-2.4724,3.216
31.7720,2.1958,-1.0270,-1.6207,2.916
31.7910,3.0509,-0.7481,-1.1765,3.354
31.8140,3.5951,-0.3602,-0.9504,3.736
31.8390,3.7818,0.2110,-1.0673,3.935
31.8490,3.8146,0.7407,-1.3254,4.106
31.8690,3.6723,1.4109,-1.5340,4.223
31.8890,3.5028,3.0489,-1.3528,4.837
31.9080,3.2472,5.0151,-1.1086,6.077
31.9330,2.4470,6.3298,-0.9391,6.851
31.9760,1.5578,6.8713,-1.2699,7.159
31.9770,0.4844,6.9890,-2.2164,7.348
31.9850,-0.4119,7.0458,-2.8415,7.608
32.0050,-0.8990,7.4886,-3.1368,8.169
32.0250,-0.4943,6.7479,-2.8547,7.344
32.0440,0.1843,5.2086,-2.1028,5.620
32.0740,0.4381,3.0389,-1.4419,3.392
32.0820,0.0087,1.1686,-0.6203,1.323
32.1020,-0.5057,0.1963,0.5693,0.786
32.1220,-0.6493,0.2553,1.6165,1.761
32.1420,-0.4813,0.9415,1.6792,1.984
32.1620,-0.2303,0.9647,0.7801,1.262
32.1830,-0.0675,0.5567,-0.2072,0.598
32.2020,-0.1564,-0.4634,-0.7156,0.867
32.2490,-0.0562,-1.7611,-0.8524,1.957
32.2500,0.3896,-3.0436,-0.4765,3.105
32.2570,0.9588,-3.9797,0.0051,4.094
32.2760,0.7871,-4.2468,0.4245,4.340
32.2960,0.4922,-4.2127,0.6240,4.287
32.3150,0.2476,-4.2215,0.5779,4.268
32.3340,0.0022,-4.1463,0.4426,4.170
32.3550,-0.0578,-4.1883,0.3525,4.203
32.3740,-0.1452,-3.8264,0.4380,3.854
32.3940,-0.3822,-2.9859,0.6175,3.073
32.4130,-0.7951,-2.0770,0.7937,2.361
32.4370,-1.5049,-1.1143,1.1047,2.174
32.4800,-2.3922,-0.0125,1.1744,2.665
32.4800,-3.4463,1.0785,0.9782,3.741
32.4900,-4.0982,1.0855,0.5683,4.277
32.5110,-4.4598,0.7586,0.1905,4.528
32.5280,-4.5479,1.3097,0.2213,4.738
32.5480,-4.1383,1.8225,1.0851,4.650
32.5680,-3.8441,1.8557,2.2991,4.848
32.5870,-4.0991,1.3266,3.1260,5.323
32.6070,-4.4841,0.4659,3.1687,5.510
32.6250,-4.6823,0.3163,2.5717,5.351
32.6450,-4.4384,0.7996,1.2949,4.692
32.6650,-3.7414,0.9501,-0.0918,3.861
32.6880,-2.8572,0.5233,-1.1235,3.114
32.7360,-1.6668,-0.5985,-1.8613,2.569
32.7370,-0.4568,-1.6407,-2.1609,2.751
32.7420,0.5745,-2.1242,-2.0724,3.023
32.7620,1.6071,-2.1263,-1.7557,3.192
32.7820,2.5181,-1.8818,-1.3190,3.409
32.8000,3.1265,-1.4886,-0.9722,3.597
32.8200,3.7935,-1.4407,-0.9875,4.176
32.8420,4.0569,-1.3100,-1.1091,4.405
32.8880,4.0558,-0.8413,-1.3824,4.367
32.8880,3.9165,-0.0564,-1.6135,4.236
32.8970,3.8128,0.8061,-1.7863,4.287
32.9170,3.6607,1.6363,-1.8668,4.423
32.9400,3.1813,3.2213,-1.7692,4.861
32.9840,2.6000,5.3532,-1.6666,6.180
32.9850,1.7773,6.8311,-1.8584,7.299
32.9940,0.8107,7.4109,-2.2761,7.795
33.0130,0.2201,7.1378,-2.5978,7.599
33.0330,-0.4463,7.3027,-2.9292,7.881
33.0520,-0.5672,7.3329,-2.5740,7.792
33.0720,-0.5224,7.2650,-1.6231,7.462
33.0930,-0.3340,6.0771,-0.9881,6.166
33.1400,-0.3926,3.5371,-0.8314,3.655
33.1410,-0.7654,0.5986,-0.8008,1.259
33.1490,-1.2482,-1.7224,-0.1189,2.130
33.1690,-1.2901,-2.6354,0.8265,3.048
33.1880,-0.9989,-2.0246,1.4764,2.698
33.2080,-0.7407,-0.8457,1.7180,2.053
33.2290,-0.5838,0.2692,1.4162,1.555
33.2760,-0.5489,-0.0679,0.8564,1.019
33.2760,-0.6471,-1.4914,0.3357,1.660
33.2840,-0.5771,-2.9381,0.0286,2.994
33.3050,-0.2963,-3.9170,-0.2042,3.934
33.3250,0.0078,-4.2604,-0.2724,4.269
33.3470,0.4116,-4.0067,-0.1792,4.032
33.3630,0.7109,-3.6526,0.2047,3.727
33.3830,0.8764,-3.5795,0.4763,3.716
33.4230,1.0570,-3.7274,0.5235,3.910
33.4230,1.1055,-3.3815,0.4451,3.585
33.4400,0.9320,-2.6819,0.3962,2.867
33.4600,0.4797,-1.5703,0.4085,1.692
33.4790,-0.2942,-0.2025,0.7610,0.841
33.4980,-1.3310,1.2372,1.1781,2.166
33.5180,-2.4650,2.0522,1.4800,3.532
33.5400,-3.4439,1.9379,1.6641,4.288
33.5560,-4.2868,1.7354,1.5307,4.871
33.5750,-4.9597,1.8978,1.6674,5.566
33.5950,-5.1703,1.7804,2.2084,5.897
33.6140,-4.8382,0.8261,2.8905,5.696
33.6340,-4.2523,-1.2673,3.6089,5.719
33.6530,-4.0103,-2.7809,4.1933,6.434
33.6730,-3.9592,-2.7261,4.3875,6.508
33.6920,-4.0881,-1.0163,3.9163,5.752
33.7110,-4.1640,0.6184,2.5576,4.926
33.7310,-3.7148,0.8766,0.5629,3.858
33.7500,-2.8513,0.1214,-1.1912,3.092
33.7690,-1.5759,-0.9549,-2.3246,2.966
33.7890,-0.3715,-1.5559,-2.7438,3.176
33.8080,0.8818,-1.8308,-2.5774,3.282
33.8280,2.0206,-1.7442,-1.7624,3.199
33.8470,3.0017,-1.3365,-0.9464,3.419
33.8670,3.6237,-1.0519,-0.3653,3.791
33.8860,4.0026,-0.9290,-0.2944,4.120
33.9050,4.1579,-0.7426,-0.7825,4.296
33.9250,4.1685,-0.3015,-1.2006,4.348
33.9440,3.9237,0.8099,-1.4120,4.248
33.9630,3.5054,2.3196,-1.4941,4.461
33.9840,3.0769,3.9392,-1.5537,5.234
34.0020,2.5533,5.2518,-1.6155,6.059
34.0230,1.6433,6.3745,-1.7901,6.822
34.0410,0.6542,7.3336,-2.1821,7.679
34.0600,0.1530,7.4010,-2.5912,7.843
34.0800,-0.1390,7.4121,-2.7061,7.892
34.0990,-0.0796,7.4263,-2.5353,7.848
34.1190,0.0472,6.8068,-1.7474,7.028
34.1400,-0.0959,5.8456,-1.0676,5.943
34.1570,-0.3515,3.2247,-0.4816,3.279
34.1770,-0.9083,0.4203,0.2045,1.022
34.1960,-1.5027,-1.5965,1.1797,2.490
34.2150,-1.8929,-1.8261,1.7779,3.175
34.2350,-2.0472,-0.8426,1.5608,2.709
34.2550,-1.8028,-0.0940,0.8321,1.988
34.2730,-1.6029,-0.2125,0.0202,1.617
34.2930,-1.3032,-1.8046,-0.3900,2.260
34.3130,-0.9318,-3.4564,-0.3682,3.599
34.3330,-0.3207,-4.7432,-0.0034,4.754
34.3610,0.2422,-5.2658,0.4023,5.287
34.3710,0.7016,-5.3292,0.5306,5.401
34.3900,0.8522,-5.1007,0.4696,5.193
34.4100,0.6660,-4.6620,0.3454,4.722
34.4300,0.3890,-4.2349,0.2909,4.263
34.4540,0.0881,-3.7315,0.4094,3.755
34.4950,-0.4327,-2.9540,0.6442,3.054
34.4960,-1.0698,-1.9973,1.0095,2.480
34.5070,-1.6155,-1.4113,1.3104,2.514
34.5260,-2.1145,-1.2085,1.4600,2.840
34.5460,-2.9615,-0.3320,1.8286,3.496
34.5710,-4.0139,1.3802,2.1718,4.768
34.6180,-5.0250,3.0055,2.3588,6.313
34.6180,-6.0359,4.2644,2.1305,7.691
34.6230,-6.2486,3.8170,1.5134,7.477
34.6430,-5.3638,1.8045,0.7868,5.714
34.6630,-4.1217,0.0157,0.7939,4.198
34.6810,-2.9517,-1.0387,1.4472,3.448
34.7010,-1.9311,-1.1124,1.8443,2.893
34.7230,-1.1677,-0.5985,1.7774,2.209
34.7710,-0.8783,0.5911,1.2641,1.649
34.7720,-0.6940,1.2276,0.4218,1.472
34.7780,-0.2195,0.6404,-0.7872,1.038
34.7980,0.4887,-0.3724,-2.0162,2.108
34.8210,1.2738,-1.3467,-2.7698,3.333
34.8630,2.0161,-1.9848,-3.0622,4.169
34.8640,2.6293,-2.2412,-2.9389,4.536
34.8780,3.1418,-2.0475,-2.4543,4.482
34.8940,3.4895,-1.3760,-1.9684,4.236
34.9150,3.8998,-0.7243,-1.6360,4.291
34.9340,4.2129,-0.3107,-1.4915,4.480
34.9580,4.1510,0.3120,-1.4794,4.418
35.0050,3.7406,1.3771,-1.5992,4.295
35.0060,3.2488,2.4109,-1.6743,4.378
35.0110,2.5930,3.5998,-1.6685,4.740
35.0300,1.6086,4.9552,-1.6493,5.465
35.0500,0.4015,6.0824,-1.4763,6.272
35.0730,-0.6848,6.6119,-1.4700,6.808
35.1080,-1.2618,6.2193,-1.6205,6.550
35.1090,-1.9605,5.9545,-1.4863,6.443
35.1270,-2.5387,6.5206,-1.2694,7.112
35.1470,-2.6163,5.8811,-0.6533,6.470
35.1660,-2.3069,4.0255,-0.4030,4.657
35.1850,-1.7133,0.7930,-0.0429,1.888
35.2050,-1.5603,-1.9911,0.9151,2.690
35.2250,-1.5476,-3.3218,1.9580,4.155
35.2440,-1.4881,-2.7346,2.6470,4.087
35.2640,-0.9476,-1.0024,2.2239,2.617
35.2830,-0.3348,-0.0771,1.0656,1.120
35.3020,-0.0196,-0.5397,0.2080,0.579
35.3210,0.2486,-2.1152,-0.0787,2.131
35.3410,0.6742,-3.5763,-0.0228,3.639
35.3600,1.1694,-4.3508,0.1925,4.509
35.3800,1.6420,-4.4592,0.3712,4.766
35.3990,2.0067,-4.2081,0.3656,4.676
35.4180,2.0810,-3.9410,0.2958,4.467
35.4380,1.9555,-3.6395,0.2695,4.140
35.4570,1.7336,-3.2202,0.4466,3.684
35.4770,1.3576,-2.5509,0.7023,2.974
35.4960,0.7576,-1.6432,0.7450,1.957
35.5150,0.1602,-0.9304,0.6984,1.174
35.5350,-0.3878,-0.2127,0.4560,0.635
35.5550,-0.8831,0.6494,0.3994,1.167
35.5740,-1.4955,1.8304,0.5713,2.432
35.5930,-2.2397,3.0877,0.7530,3.888
35.6120,-2.7702,3.6949,0.7006,4.671
35.6320,-3.0461,3.2436,0.5274,4.481
35.6510,-3.0529,2.7447,0.2179,4.111
35.6710,-2.5995,2.0560,0.5661,3.362
35.6900,-1.9708,1.2328,1.4662,2.748
35.7270,-1.6730,-0.0701,2.5740,3.071
35.7280,-1.9200,-1.0094,3.4765,4.098
35.7480,-2.4146,-0.7693,3.7313,4.511
35.7670,-2.9132,0.7322,2.7757,4.090
35.7870,-2.8011,1.6666,0.9122,3.385
35.8060,-2.2956,1.2745,-0.7845,2.740
35.8260,-1.4251,-0.4934,-1.7556,2.314
35.8460,-0.4317,-2.1080,-2.1760,3.060
35.8650,0.5047,-2.9941,-2.3190,3.821
35.8850,1.4234,-3.1452,-2.1573,4.071
35.9030,2.1324,-2.8600,-1.7192,3.960
35.9230,2.6268,-2.2463,-1.1419,3.640
35.9420,2.8661,-1.9264,-1.1002,3.624
35.9620,2.9165,-2.2260,-1.2621,3.880
35.9810,2.9835,-2.1355,-1.2044,3.862
36.0000,2.9895,-1.4020,-0.9281,3.430
36.0200,2.8110,-0.2493,-0.6544,2.897
36.0390,2.3834,0.8584,-0.5182,2.586
36.0590,1.7535,2.1531,-0.5263,2.826
36.0830,0.7867,3.7197,-0.7335,3.872
36.1320,-0.4160,5.0969,-1.0260,5.216
36.1330,-1.2007,5.6618,-1.7182,6.037
36.1360,-1.6147,5.7604,-2.0653,6.329
36.1550,-1.8829,6.6571,-2.1618,7.248
36.1750,-1.5805,6.6215,-1.7496,7.029
36.1940,-1.2278,5.7062,-1.4574,6.016
36.2140,-0.6926,3.1787,-1.3389,3.518
36.2480,-0.1793,0.0715,-1.0583,1.076
36.2530,-0.0751,-1.4652,-0.1297,1.473
36.2720,-0.1136,-1.1102,1.0104,1.505
36.2910,0.2617,-0.0635,1.1591,1.190
36.3110,0.7550,0.5195,0.4094,1.004
36.3350,0.8588,0.3695,-0.2975,0.981
36.3820,0.8546,-0.9141,-0.7239,1.446
36.3820,1.2214,-2.4122,-0.8069,2.822
36.3880,1.6702,-3.4327,-0.5067,3.851
36.4080,2.0403,-3.9026,-0.1457,4.406
36.4280,2.2203,-3.9687,0.0842,4.548
36.4470,2.0992,-4.1987,0.3795,4.710
36.4670,1.7400,-4.2759,0.7225,4.673
36.4870,1.3294,-4.0513,1.1907,4.427
36.5060,0.8715,-3.1965,1.6395,3.697
36.5520,0.4596,-2.1846,1.8299,2.886
36.5520,-0.0470,-1.5766,1.6921,2.313
36.5620,-0.7693,-0.9937,1.3439,1.840
36.5860,-1.5700,0.0130,1.0850,1.908
36.6200,-2.4984,1.2412,1.1424,3.015
36.6200,-3.4555,2.4196,1.2534,4.401
36.6400,-4.1805,2.7766,1.1378,5.146
36.6600,-4.7119,2.5505,0.8600,5.426
36.6800,-4.7372,2.3872,0.4697,5.325
36.6990,-4.2743,2.1141,0.8640,4.846
36.7180,-3.4628,1.0055,1.7871,4.024
36.7400,-3.0451,-0.8576,2.8277,4.243
36.7820,-2.9692,-2.0180,3.4035,4.947
36.7830,-3.1730,-1.4256,3.1874,4.718
36.7950,-3.2852,0.3434,1.8612,3.791
36.8150,-3.0073,1.5206,0.1677,3.374
36.8380,-2.4025,1.2263,-1.1287,2.924
36.8810,-1.5919,-0.2349,-2.0578,2.612
36.8820,-0.6970,-1.6991,-2.5278,3.125
36.8920,0.1448,-2.4951,-2.5076,3.540
36.9120,0.9483,-2.7376,-2.2804,3.687
36.9310,1.7374,-2.5547,-1.9712,3.665
36.9510,2.5429,-2.1221,-1.6849,3.716
36.9700,3.1209,-1.4742,-1.5142,3.769
36.9900,3.3341,-0.6790,-1.5246,3.729
37.0320,3.2558,-0.0260,-1.6999,3.673
37.0330,3.1776,0.4082,-1.8776,3.713
37.0470,2.9900,0.9842,-2.0204,3.740
37.0670,2.5732,1.9025,-1.9561,3.751
37.0870,1.8986,3.1624,-1.8597,4.131
37.1060,1.3098,4.5296,-1.7866,5.042
37.1290,0.7314,5.5463,-1.9239,5.916
37.1750,0.4166,5.8738,-2.3162,6.328
37.1760,-0.0320,6.4036,-2.4180,6.845
37.1830,-0.1857,6.8924,-2.3864,7.296
37.2030,-0.1925,6.8440,-2.1098,7.164
37.2220,0.0140,5.4409,-1.9677,5.786
37.2430,0.3356,2.9119,-1.8153,3.448
37.2920,0.1529,1.7620,-0.9490,2.007
37.2920,0.0755,1.9759,0.4247,2.022
37.2990,-0.2500,2.5667,1.5455,3.007
37.3190,-0.0645,1.8498,1.2675,2.243
37.3390,0.1800,0.4538,0.3189,0.583
37.3580,0.2237,-0.9199,-0.7015,1.178
37.3800,0.3000,-2.2863,-0.8037,2.442
37.3980,0.7229,-3.5337,-0.2869,3.618
37.4380,1.1401,-4.2602,0.3334,4.423
37.4380,1.3845,-4.6940,0.8569,4.968
37.4550,1.4356,-4.7316,1.1436,5.075
37.4740,1.1448,-4.5477,1.3360,4.876
37.4950,0.6536,-4.6445,1.4668,4.914
37.5130,-0.0239,-4.3300,1.5701,4.606
37.5340,-0.5268,-3.3150,1.7312,3.777
37.5760,-0.8673,-2.1234,2.0077,3.048
37.5770,-1.1630,-1.0450,2.1193,2.634
37.5900,-1.6158,-0.2920,2.0001,2.588
37.6100,-2.3106,0.6680,1.8595,3.040
37.6300,-3.1732,1.9117,1.6839,4.069
37.6510,-3.9433,2.8425,1.3264,5.039
37.6690,-4.5091,2.8560,1.1421,5.458
37.7150,-4.9183,2.6948,0.8623,5.674
37.7160,-4.8249,2.1462,0.9267,5.361
37.7270,-4.2298,0.8282,1.6118,4.602
37.7460,-3.7145,-1.2241,2.6179,4.706
37.7660,-3.5502,-2.4570,3.3997,5.495
37.7870,-3.8241,-1.4633,3.6864,5.510
37.8260,-4.0039,0.6153,2.6538,4.843
37.8270,-3.6712,2.1365,0.7617,4.315
37.8430,-2.7043,1.7551,-0.7989,3.321
37.8620,-1.6652,0.1818,-1.8608,2.504
37.8820,-0.6445,-1.0856,-2.4165,2.726
37.9010,0.3856,-1.5773,-2.4769,2.962
37.9200,1.4365,-1.5863,-2.3508,3.179
37.9410,2.4193,-1.4359,-2.0113,3.458
37.9780,3.1644,-1.1640,-1.7621,3.804
37.9780,3.5600,-1.0582,-1.7525,4.107
37.9980,3.7031,-0.6909,-1.9568,4.245
38.0170,3.9343,-0.2181,-2.1011,4.466
38.0370,4.0630,0.6400,-1.8787,4.522
38.0560,4.0891,2.2969,-1.4070,4.897
38.0760,3.8756,4.0130,-0.9174,5.654
38.1000,3.3382,5.2170,-0.6683,6.230
38.1140,2.4312,5.8986,-0.6781,6.416
38.1340,1.2466,6.5148,-1.1814,6.737
38.1540,0.4982,6.5442,-1.8548,6.820
38.1720,-0.2484,7.1047,-1.9714,7.377
38.1920,-0.5430,7.7299,-1.9344,7.987
38.2120,-0.5212,7.4442,-1.4277,7.598
38.2520,-0.4522,5.8745,-0.9614,5.970
38.2530,-0.3802,2.7961,-0.6587,2.898
38.2720,-0.7838,0.4614,-0.0811,0.913
38.2890,-1.2576,-0.3799,0.8418,1.560
38.3090,-1.7008,0.6546,1.3195,2.250
38.3280,-1.2330,1.0751,0.5601,1.729
38.3470,-0.8112,0.7132,-0.2072,1.100
38.3720,-0.4985,-0.7682,-0.6726,1.136
38.3870,-0.4719,-2.5337,-0.5813,2.642
38.4050,-0.0892,-4.2412,-0.0899,4.243
38.4250,0.4907,-5.3306,0.4257,5.370
38.4450,0.9565,-5.4729,0.5555,5.584
38.4640,1.0615,-5.0849,0.5719,5.226
38.5000,1.1040,-4.7209,0.7055,4.899
38.5030,1.0535,-4.3947,0.8253,4.594
38.5230,0.6829,-3.8492,1.0700,4.053
38.5410,0.1889,-3.1441,1.1042,3.338
38.5610,-0.3419,-2.4106,1.0150,2.638
38.5950,-0.7847,-1.8433,1.0460,2.260
38.6000,-1.3632,-1.1043,0.9922,2.016
38.6190,-2.1868,0.0251,1.0632,2.432
38.6380,-3.1168,1.3217,1.1456,3.574
38.6570,-3.7477,2.0182,0.9591,4.363
38.6770,-3.9444,1.7237,0.6017,4.346
38.6970,-4.2009,1.8702,0.3981,4.616
38.7380,-3.8692,1.9740,0.5131,4.374
38.7390,-3.1687,1.4540,1.3875,3.752
38.7540,-2.4080,-0.3209,2.5640,3.532
38.7740,-2.3409,-1.8053,3.4639,4.554
38.7930,-2.7411,-1.9009,4.0230,5.226
38.8130,-3.4080,-0.1552,3.5110,4.896
38.8320,-3.8002,1.7662,1.8263,4.571
38.8680,-3.5168,2.3422,-0.0957,4.226
38.8700,-2.6759,1.2752,-1.4704,3.309
38.8970,-1.6769,-0.4737,-2.1471,2.765
38.9100,-0.5920,-1.8346,-2.4317,3.103
38.9300,0.2936,-2.3849,-2.4170,3.408
38.9490,1.1691,-2.3533,-2.2713,3.473
38.9690,2.0355,-1.6892,-1.9485,3.285
39.0010,2.9227,-1.0220,-1.6175,3.493
39.0080,3.6557,-0.3521,-1.5059,3.969
39.0260,4.1162,0.2448,-1.5832,4.417
39.0460,4.2651,0.8713,-1.7699,4.699
39.0650,4.2875,1.6729,-1.7689,4.931
39.0910,4.1917,2.5449,-1.5667,5.148
39.1370,3.7786,3.7160,-1.3005,5.457
39.1370,2.9935,4.9279,-1.1384,5.877
39.1420,1.9312,5.9119,-1.2953,6.353
39.1620,0.9645,6.2616,-1.8920,6.612
39.1820,0.2214,6.0706,-2.2529,6.479
39.2010,-0.5975,6.6461,-2.4086,7.094
39.2210,-0.8704,6.6992,-2.0247,7.052
39.2430,-0.8654,6.1382,-1.5908,6.400
39.2920,-0.4261,3.8004,-1.1720,4.000
39.2930,-0.7066,1.8584,-0.3646,2.021
39.2970,-1.4727,1.1570,0.7890,2.032
39.3180,-2.2408,1.6547,1.7903,3.311
39.3360,-2.0409,2.0017,1.6728,3.312
39.3590,-0.8585,0.9894,0.5323,1.414
39.4060,-0.3807,-0.4474,-0.6367,0.866
39.4070,0.0414,-2.0632,-0.6235,2.156
39.4140,0.6973,-3.4240,0.0730,3.495
39.4330,1.4070,-4.4760,0.8528,4.769
39.4530,1.9241,-4.9629,1.3075,5.481
39.4720,2.0646,-5.0626,1.3275,5.626
39.4920,1.8213,-4.8511,1.1012,5.297
39.5140,1.3939,-4.7062,0.8702,4.985
39.5610,0.9335,-4.3333,0.9517,4.534
39.5620,0.2755,-3.5754,1.2447,3.796
39.5690,-0.3792,-2.8805,1.4261,3.236
39.5890,-1.0667,-2.2345,1.1884,2.746
39.6110,-1.8128,-1.5928,0.7833,2.537
39.6280,-2.6041,-0.7715,0.5081,2.763
39.6490,-3.4606,0.3996,0.4142,3.508
39.6950,-4.1871,1.5748,0.3538,4.487
39.6960,-4.5912,2.0265,0.3678,5.032
39.7040,-4.9445,2.3195,0.3898,5.475
39.7250,-4.7515,2.3187,0.3195,5.297
39.7440,-4.0932,1.7396,0.8459,4.527
39.7650,-3.3092,0.0391,2.0876,3.913
39.7840,-3.1307,-1.4450,3.3116,4.781
39.8250,-3.2957,-1.6963,3.9887,5.445
39.8250,-3.7605,0.2104,3.3237,5.023
39.8400,-3.7194,2.0857,1.4481,4.503
39.8600,-3.0903,2.6027,-0.3672,4.057
39.8800,-2.0261,1.3627,-1.5284,2.881
39.9010,-0.8661,-0.4270,-2.0878,2.300
39.9180,0.2427,-1.6769,-2.0753,2.679
39.9390,1.1569,-2.1790,-1.7991,3.053
39.9790,2.0103,-2.0427,-1.2797,3.139
39.9790,2.6928,-1.4573,-0.8514,3.178
39.9950,3.2880,-1.0787,-0.9197,3.581
40.0150,3.5341,-0.7490,-1.3417,3.854
40.0350,3.5251,0.0368,-1.6254,3.882
40.0540,3.5508,0.9922,-1.7376,4.076
40.0730,3.6403,2.0348,-1.6051,4.469
40.0940,3.5836,3.1780,-1.1931,4.936
40.1120,3.1913,4.6249,-0.7658,5.671
40.1320,2.5448,6.3182,-0.5886,6.837
40.1510,1.8509,7.4065,-0.6113,7.659
40.1700,1.2524,7.3998,-1.1366,7.591
40.1910,0.6511,7.0159,-1.7968,7.272
40.2310,0.0354,7.2462,-2.2369,7.584
40.2310,-0.0330,7.0952,-2.1961,7.427
40.2490,0.3067,6.3623,-2.0081,6.679
40.2680,0.6279,3.9001,-1.6154,4.268
40.2870,-0.1562,1.4347,-0.7638,1.633
40.3060,-1.1853,-0.0463,0.4612,1.273
40.3260,-1.9158,0.4706,1.5927,2.535
40.3590,-1.8479,1.2796,1.8597,2.917
40.3650,-1.0962,1.0957,1.2275,1.977
40.3830,-0.6447,0.3683,0.2980,0.800
40.4030,-0.2698,-1.5732,0.0175,1.596
40.4230,0.1793,-3.4120,0.0632,3.417
40.4420,0.6879,-4.7196,0.0658,4.770
40.4620,1.1147,-5.2714,-0.1299,5.390
40.4970,1.4813,-5.1984,-0.2994,5.414
40.5000,1.6918,-4.7090,-0.2875,5.012
40.5190,1.5923,-4.1152,-0.1086,4.414
40.5390,1.3907,-3.7184,0.3118,3.982
40.5580,0.9778,-3.1491,0.6948,3.370
40.5780,0.3240,-2.3615,0.8405,2.527
40.5980,-0.2853,-1.6524,0.8398,1.875
40.6340,-1.2367,-0.6585,0.7806,1.604
40.6360,-2.5151,0.7580,0.6820,2.714
40.6570,-3.8278,2.2424,0.5508,4.470
40.6740,-4.5593,2.7505,0.3131,5.334
40.6950,-4.8769,2.4995,0.1425,5.482
40.7140,-4.8376,2.2037,-0.0301,5.316
40.7380,-4.3219,1.4993,0.3949,4.592
40.7870,-3.5270,0.3520,1.3093,3.779
40.7870,-2.8385,-1.2515,2.4467,3.951
40.7910,-2.6798,-2.3446,3.2594,4.827
40.8100,-3.1278,-2.0010,3.3831,5.023
40.8300,-3.5533,-0.4020,2.2270,4.213
40.8490,-3.5626,1.1384,0.7776,3.820
40.8690,-2.8202,0.9624,-0.2887,2.994
40.8900,-1.6381,-0.2205,-1.0622,1.965
40.9430,-0.5280,-1.2087,-1.4840,1.985
40.9430,0.4459,-1.6899,-1.6714,2.418
40.9460,1.4003,-1.5680,-1.7041,2.706
40.9660,2.3714,-1.2709,-1.6217,3.141
40.9850,3.1636,-0.8104,-1.2717,3.505
41.0050,3.7386,-0.3994,-1.1266,3.925
41.0240,4.0925,0.0858,-1.2716,4.286
41.0760,4.2262,0.5649,-1.4066,4.490
41.0760,4.1625,1.1750,-1.3833,4.541
41.0830,3.9541,1.9617,-1.3219,4.608
41.1010,3.5454,3.0008,-1.1581,4.787
41.1210,2.6748,4.6712,-1.0194,5.479
41.1410,1.5957,6.3180,-1.0162,6.595
41.1610,0.5354,7.3046,-1.2471,7.430
41.2060,-0.0019,6.9127,-1.7818,7.139
41.2070,-0.5561,6.7319,-2.1884,7.100
41.2180,-0.9619,6.8735,-2.2432,7.294
41.2380,-0.9929,6.5418,-1.8059,6.859
41.2570,-0.7489,5.5208,-1.4622,5.760
41.2760,-0.2529,3.2179,-0.9757,3.372
41.2960,-0.5739,1.0800,-0.1420,1.231
41.3380,-1.1340,-0.1629,1.0222,1.535
41.3390,-1.3785,-0.0625,1.7352,2.217
41.3540,-1.1122,0.6511,1.2004,1.761
41.3720,-0.3923,0.5026,0.1292,0.651
41.3930,0.0741,-0.3479,-0.8158,0.890
41.4130,0.4357,-1.7370,-0.8987,2.004
41.4310,0.9067,-2.9321,-0.5900,3.125
41.4520,1.4080,-3.6903,-0.1473,3.953
41.4970,1.8236,-3.9788,0.1782,4.380
41.4970,1.9865,-4.1286,0.1272,4.583
41.5080,1.8003,-4.0150,-0.1705,4.403
41.5290,1.4134,-3.8372,-0.3355,4.103
41.5480,1.0054,-3.6722,-0.2169,3.814
41.5670,0.6131,-3.1385,0.1721,3.202
41.5870,0.1768,-2.3722,0.5918,2.451
41.6220,-0.2820,-1.7248,0.7704,1.910
41.6270,-0.9204,-1.1935,0.8746,1.743
41.6440,-1.8103,-0.4096,0.9448,2.083
41.6640,-2.7893,0.4081,0.9901,2.988
41.6840,-3.7025,1.3209,0.8997,4.033
41.7030,-4.4762,2.1325,0.9255,5.044
41.7230,-5.0217,2.8359,0.9613,5.847
41.7570,-5.1328,2.7425,0.9569,5.898
41.7600,-4.8575,1.7861,1.1978,5.312
41.7800,-4.2731,-0.3420,2.0345,4.745
41.8010,-3.9110,-2.4632,3.1487,5.593
41.8190,-3.7539,-3.2173,3.9976,6.358
41.8390,-3.9736,-1.7726,4.0051,5.914
41.8740,-4.1665,0.2211,2.7599,5.003
41.8790,-3.7496,1.1258,0.5925,3.960
41.8970,-2.7389,0.8051,-1.0907,3.056
41.9160,-1.4421,-0.5271,-2.0365,2.550
41.9350,-0.1926,-1.6054,-2.3967,2.891
41.9550,0.8927,-2.0051,-2.3878,3.243
41.9750,1.9069,-1.8839,-2.1389,3.429
42.0150,2.9987,-1.2854,-1.3754,3.541
42.0150,3.9735,-0.3456,-0.8785,4.084
42.0320,4.8426,0.1515,-0.6482,4.888
42.0520,5.1311,0.4888,-0.8807,5.229
42.0710,4.8014,0.9464,-1.2019,5.039
42.0910,4.3135,1.8264,-1.1975,4.835
42.1260,3.8482,3.0848,-1.0940,5.052
42.1310,3.1912,4.6875,-0.8331,5.732
42.1490,2.3021,6.3199,-0.6220,6.755
42.1680,1.1627,7.6438,-0.8922,7.783
42.1880,0.3350,7.4591,-1.6513,7.647
42.2080,-0.3601,6.7091,-2.1827,7.064
42.2480,-1.2121,7.1448,-2.1572,7.561
42.2480,-1.3461,7.0630,-1.5919,7.364
42.2650,-1.0786,5.9533,-0.7737,6.100
42.2840,-0.4923,2.9347,-0.4390,3.008
42.3040,-0.3894,-0.1925,-0.0839,0.442
42.3240,-0.5771,-1.6651,0.9363,1.996
42.3430,-0.8383,-0.8089,2.0466,2.355
42.3620,-1.0973,0.7666,2.4291,2.774
42.3930,-0.8219,1.1867,1.9626,2.436
42.4010,-0.6055,0.4653,0.4222,0.873
42.4200,-0.2466,-1.7621,-0.3085,1.806
42.4400,0.1209,-3.7731,-0.2694,3.785
42.4590,0.8083,-5.2434,0.1216,5.307
42.4950,1.2910,-5.4479,0.4480,5.617
42.5010,1.6025,-5.2001,0.4375,5.459
42.5170,1.7666,-4.7143,0.2639,5.041
42.5370,1.5962,-4.3185,0.2139,4.609
42.5560,1.3317,-3.9170,0.2823,4.147
42.5770,0.9007,-3.3496,0.5712,3.515
42.6190,0.3486,-2.5602,0.7975,2.704
42.6200,-0.2287,-1.7210,0.7915,1.908
42.6330,-0.9364,-0.6715,0.6859,1.341
42.6550,-1.7337,0.3990,0.5083,1.850
42.6730,-2.6123,1.5116,0.3070,3.034
42.7160,-3.4958,2.6945,0.0842,4.415
42.7160,-4.2561,3.5461,0.1196,5.541
42.7310,-4.6330,3.9738,0.1630,6.106
42.7510,-4.4616,3.4259,0.3252,5.635
42.7700,-3.6384,1.7016,0.8359,4.103
42.7910,-2.9032,-0.6695,1.8888,3.528
42.8100,-2.7757,-1.7267,2.8290,4.323
42.8520,-3.0561,-1.1320,3.1020,4.499
42.8520,-3.5453,0.7673,2.2520,4.270
42.8680,-3.4964,1.8745,0.7331,4.034
42.8850,-2.5903,1.3961,-0.7276,3.031
42.9070,-1.3394,0.0538,-1.6619,2.135
42.9250,0.0139,-1.3759,-1.8440,2.301
42.9450,1.1550,-2.0414,-1.7776,2.943
42.9640,1.9802,-2.0794,-1.4473,3.216
42.9990,2.8268,-1.7839,-1.0197,3.495
43.0050,3.6271,-1.5431,-0.6877,4.001
43.0220,4.1525,-1.2372,-0.5746,4.371
43.0410,4.3468,-0.9858,-0.7341,4.517
43.0610,4.2758,-0.5005,-0.8929,4.397
43.0810,4.0777,0.2542,-0.9674,4.199
43.1000,3.7193,1.3304,-0.9599,4.065
43.1340,3.1460,2.8325,-0.9690,4.343
43.1380,2.3663,4.6238,-1.1242,5.314
43.1580,1.3816,6.0115,-1.3006,6.304
43.1770,0.5482,6.5243,-1.7436,6.775
43.1970,0.1002,6.4659,-2.3334,6.875
43.2170,-0.5355,7.1770,-2.3899,7.583
43.2560,-0.6158,7.8356,-1.8509,8.075
43.2560,-0.7005,7.7034,-1.3632,7.854
43.2740,-0.2935,5.4707,-1.2721,5.624
43.2930,-0.1270,2.0993,-1.0522,2.352
43.3130,-0.6344,0.1157,-0.1029,0.653
43.3320,-1.0761,-0.1051,1.0952,1.539
43.3530,-1.3963,0.9131,1.7125,2.391
43.3930,-0.8134,0.7400,1.1299,1.577
43.3930,-0.3112,0.0422,-0.1978,0.371
43.4100,0.0290,-1.3694,-0.7895,1.581
43.4280,0.4961,-2.9580,-0.7203,3.085
43.4480,1.2051,-4.1646,-0.0469,4.336
43.4680,1.7972,-4.5619,0.5687,4.936
43.5040,2.1268,-4.4692,0.7806,5.011
43.5060,2.1066,-4.3845,0.5137,4.891
43.5250,1.7104,-4.2709,0.2297,4.606
43.5450,1.1687,-3.8405,0.3712,4.031
43.5650,0.5883,-3.2181,0.8599,3.383
43.6090,0.0508,-2.5449,1.1910,2.810
43.6090,-0.4814,-1.9596,1.2037,2.350
43.6230,-1.1113,-1.2405,0.9566,1.921
43.6420,-1.8599,-0.3321,0.7079,2.018
43.6610,-2.8450,0.8928,0.7069,3.064
43.6820,-3.8540,2.2669,0.7839,4.539
43.7240,-4.4324,2.9253,0.6133,5.346
43.7240,-4.7415,2.6734,0.3647,5.455
43.7390,-4.5068,2.1284,-0.0508,4.984
43.7600,-3.8373,1.3646,0.1860,4.077
43.7960,-2.9306,0.1657,1.1133,3.139
43.7970,-2.4390,-1.0488,2.3492,3.545
43.8160,-2.5534,-1.6925,3.4919,4.645
43.8370,-3.1172,-1.3181,4.0053,5.244
43.8550,-3.7235,-0.0649,3.1034,4.848
43.8790,-3.4906,0.6588,1.1013,3.719
43.9260,-2.9222,0.5622,-0.6032,3.036
43.9260,-2.0390,-0.3777,-1.6775,2.667
43.9330,-0.8943,-1.4079,-2.2935,2.836
43.9520,0.3200,-1.9943,-2.4992,3.213
43.9720,1.3791,-1.8515,-2.1611,3.162
43.9940,2.1336,-1.0843,-1.5862,2.871
44.0240,2.8787,-0.6152,-1.1277,3.152
44.0300,3.2997,-0.2625,-1.0742,3.480
44.0500,3.4200,-0.0643,-1.5582,3.759
44.0690,3.3122,0.1913,-2.0964,3.925
44.0900,3.0870,0.6964,-2.2608,3.889
44.1080,2.9274,1.2705,-2.2087,3.881
44.1320,2.6409,2.6789,-1.9255,4.226
44.1780,2.0967,5.0184,-1.5149,5.646
44.1780,1.6553,6.6666,-1.0661,6.951
44.1850,1.2250,7.0682,-0.9747,7.239
44.2050,0.9222,6.4919,-1.4580,6.717
44.2250,0.2286,6.3863,-1.6195,6.592
44.2440,-0.1116,6.8680,-1.7750,7.095
44.2630,-0.1134,6.9323,-1.4647,7.086
44.2840,0.1016,5.7827,-0.9095,5.855
44.3330,0.1958,3.1521,-0.4655,3.192
44.3330,-0.1896,0.8086,0.0737,0.834
44.3400,-0.5592,-0.5518,0.7907,1.115
44.3590,-0.8021,-0.4423,1.3288,1.614
44.3830,-0.6828,0.4698,1.1941,1.454
44.4300,-0.1300,0.4501,0.3214,0.568
44.4300,0.1465,-0.3657,-0.5402,0.669
44.4370,0.2712,-1.7450,-0.8925,1.979
44.4560,0.5016,-2.8740,-0.7280,3.007
44.4760,0.9601,-3.5815,-0.3681,3.726
44.4960,1.4127,-3.7915,0.0174,4.046
44.5340,1.7252,-3.8210,0.1307,4.194
44.5340,1.7749,-3.8125,0.1404,4.208
44.5540,1.4915,-3.6332,0.2188,3.934
44.5740,0.9751,-3.3133,0.5153,3.492
44.5940,0.4871,-2.8692,0.9321,3.056
44.6130,0.0402,-2.4057,1.1644,2.673
44.6330,-0.3846,-1.9290,1.1782,2.293
44.6680,-1.0069,-1.3408,1.2809,2.110
44.6700,-1.9648,-0.1989,1.4198,2.432
44.6910,-3.1186,1.1509,1.4834,3.640
44.7090,-4.0579,2.0080,1.2893,4.708
44.7280,-4.4690,2.0229,0.8053,4.971
44.7480,-4.6448,2.2638,0.4071,5.183
44.7710,-4.3175,2.1746,0.5009,4.860
44.8170,-3.6573,1.4394,1.1416,4.093
44.8180,-2.9444,-0.1320,1.9954,3.559
44.8250,-2.7529,-1.3888,2.8616,4.207
44.8450,-2.9411,-1.5229,3.1436,4.566
44.8650,-3.2536,-0.5146,2.4483,4.104
44.8830,-3.1843,0.5322,0.9885,3.376
44.9030,-2.6141,0.6612,-0.4848,2.740
44.9250,-1.7340,0.0022,-1.6072,2.364
44.9700,-0.5983,-0.9334,-2.3036,2.557
44.9710,0.4793,-1.5908,-2.5899,3.077
44.9800,1.2888,-1.6790,-2.3385,3.154
45.0000,1.8734,-1.1629,-1.9062,2.915
45.0190,2.4558,-0.7979,-1.4418,2.957
45.0390,3.0282,-0.8011,-1.2905,3.388
45.0600,3.3163,-0.9612,-1.4229,3.735
45.1010,3.4199,-0.8823,-1.5341,3.851
45.1020,3.3268,-0.1071,-1.6336,3.708
45.1160,3.1667,0.9048,-1.5954,3.659
45.1370,2.8703,2.1659,-1.4585,3.880
45.1550,2.3303,3.8959,-1.2182,4.700
45.1750,1.5674,5.5510,-1.0029,5.855
45.1950,0.7605,6.4750,-1.0032,6.596
45.2340,0.2118,6.2413,-1.4659,6.415
45.2350,-0.2006,5.9968,-1.8513,6.279
45.2520,-0.4856,6.5695,-2.0440,6.897
45.2720,-0.3078,6.5443,-1.6775,6.763
45.2920,-0.0057,5.5732,-1.1909,5.699
45.3100,0.5232,2.8311,-0.8152,2.992
45.3300,0.5311,0.3227,-0.2115,0.656
45.3730,0.0731,-0.7144,0.9060,1.156
45.3730,-0.5635,-0.4009,1.9826,2.100
45.3880,-0.7191,0.3720,2.0657,2.219
45.4070,-0.0928,0.7346,0.8152,1.101
45.4290,-0.1990,1.0490,-0.7774,1.321
45.4460,0.0760,-0.2611,-1.3911,1.417
45.4650,0.7965,-2.0485,-1.4324,2.623
45.4860,1.6873,-3.2506,-0.7737,3.743
45.5170,2.4528,-3.8109,-0.1736,4.535
45.5240,2.8753,-3.6879,0.0928,4.677
45.5420,2.9454,-3.5935,0.3745,4.661
45.5630,2.7096,-3.4865,0.8478,4.496
45.5820,2.3446,-2.9704,1.3486,4.017
45.6010,1.8003,-2.3471,1.7440,3.434
45.6210,1.2140,-1.7654,1.7442,2.763
45.6550,0.5393,-1.1715,1.4572,1.946
45.6590,-0.1903,-0.4670,1.1744,1.278
45.6800,-1.0548,0.3055,1.0647,1.530
45.6980,-2.0499,1.2306,1.1718,2.663
45.7170,-3.1680,2.2379,1.4081,4.126
45.7370,-4.1859,2.4721,1.5024,5.088
45.7570,-4.9758,1.9915,1.4955,5.564
45.7970,-5.3926,1.7238,1.2459,5.797
45.7970,-5.0091,1.4012,1.3539,5.375
45.8150,-3.9679,0.2584,2.2617,4.575
45.8340,-3.2876,-1.1827,3.2784,4.791
45.8540,-2.9888,-1.7880,3.7151,5.092
45.8730,-3.1137,-1.2055,3.3117,4.703
45.8930,-3.3597,0.1868,1.8247,3.828
45.9220,-3.0976,0.8471,0.1717,3.216
45.9310,-2.3456,0.2167,-0.9164,2.528
45.9500,-1.3740,-0.9881,-1.6315,2.351
45.9710,-0.2994,-2.0596,-2.0225,2.902
45.9890,0.6609,-2.6469,-1.9884,3.376
46.0090,1.4209,-2.4718,-1.6130,3.276
46.0470,1.9488,-1.7547,-1.1578,2.867
46.0480,2.4638,-1.3662,-0.8677,2.948
46.0670,2.7871,-0.8842,-0.8671,3.050
46.0850,3.1043,-0.4482,-1.0638,3.312
46.1060,3.2762,0.0804,-1.1844,3.485
46.1250,3.2527,0.7769,-1.3112,3.592
46.1450,3.1239,1.4436,-1.3710,3.704
46.1740,2.7450,2.5870,-1.3020,3.990
46.1830,2.0803,4.3018,-1.2377,4.936
46.2020,1.3321,5.9541,-1.1517,6.209
46.2220,0.5735,6.9791,-1.5062,7.163
46.2410,0.0989,6.6577,-2.1252,6.989
46.2610,-0.5520,6.7571,-2.5233,7.234
46.2970,-0.5638,6.8724,-2.7531,7.425
46.2990,-0.3306,6.4790,-2.3018,6.884
46.3180,0.4637,4.6876,-2.1421,5.175
46.3390,1.1045,1.8909,-1.7741,2.818
46.3580,1.0133,0.1996,-0.8466,1.335
46.3770,0.7517,-0.1229,0.3999,0.860
46.4020,0.3591,0.8523,1.3884,1.668
46.4490,0.2029,1.6003,1.4127,2.144
46.4490,0.5219,1.1633,0.6445,1.429
46.4540,0.4253,0.0556,-0.3630,0.562
46.4760,0.3312,-1.6152,-0.6629,1.777
46.4940,0.5276,-3.0512,-0.3690,3.118
46.5130,0.8082,-4.0255,0.1027,4.107
46.5330,1.1360,-4.3460,0.4946,4.519
46.5530,1.3021,-4.2233,0.6843,4.472
46.6080,1.1192,-3.7615,0.7711,4.000
46.6090,0.7513,-3.3892,0.8196,3.567
46.6100,0.3873,-2.9789,0.9854,3.162
46.6290,0.1836,-2.4736,1.1668,2.741
46.6530,-0.0706,-1.9731,1.2574,2.341
46.6940,-0.5031,-1.4162,1.2607,1.962
46.6950,-1.2111,-0.5144,1.2676,1.827
46.7060,-2.1574,0.6208,1.3749,2.633
46.7270,-3.3314,1.8722,1.4919,4.102
46.7460,-4.2059,2.0451,1.3189,4.859
46.7650,-4.7717,1.2781,1.0098,5.042
46.7850,-4.9091,0.6550,0.6230,4.992
46.8060,-4.6788,0.5704,0.8682,4.793
46.8540,-3.9587,0.1103,1.6448,4.288
46.8550,-3.4248,-0.9616,2.7863,4.519
46.8610,-3.2593,-1.8344,3.4836,5.111
46.8810,-3.7126,-1.1611,3.2946,5.098
46.9010,-4.0691,0.3402,1.7749,4.452
46.9310,-3.8792,1.0443,-0.1144,4.019
46.9400,-3.1825,0.7271,-1.5071,3.596
46.9580,-2.1338,-0.3938,-2.2664,3.138
46.9780,-0.9479,-1.3957,-2.3916,2.927
46.9980,0.1301,-1.8383,-2.1245,2.812
47.0210,1.0838,-1.8206,-1.7748,2.764
47.0670,1.9725,-1.7563,-1.4520,3.014
47.0670,2.6974,-1.3926,-1.2793,3.294
47.0760,3.3976,-0.8388,-1.2925,3.731
47.0950,3.8467,0.0841,-1.3499,4.078
47.1150,3.9713,1.2556,-1.3403,4.375
47.1350,3.9860,2.2540,-1.2897,4.757
47.1530,3.9636,2.7508,-1.1570,4.961
47.1740,3.3837,3.3846,-0.9635,4.882
47.1930,2.3882,4.4540,-0.8871,5.131
47.2390,1.2029,5.5256,-1.1182,5.765
47.2390,0.4099,5.8539,-1.7924,6.136
47.2490,0.1648,5.7001,-2.5881,6.262
47.2710,-0.3655,6.4506,-2.9385,7.098
47.3080,-0.5110,7.1467,-2.7699,7.682
47.3100,-0.4893,7.5818,-2.2216,7.916
47.3280,0.2327,6.3217,-1.9028,6.606
47.3460,1.1495,3.8629,-1.5809,4.329
47.3660,1.6075,2.2120,-0.0945,2.736
47.3860,1.5597,1.8084,1.6185,2.885
47.4200,0.9229,2.2644,1.7468,3.005
47.4280,0.6960,2.2276,0.1654,2.340
47.4430,0.1778,1.5680,-1.4225,2.125
47.4640,-0.3494,0.3512,-2.3772,2.428
47.4820,-0.4000,-1.2226,-2.2055,2.553
47.5020,0.0357,-2.6327,-1.2556,2.917
47.5420,0.5594,-3.4235,-0.3337,3.485
47.5430,0.6709,-3.6347,0.2937,3.708
47.5600,0.5351,-4.1070,0.8202,4.222
47.5810,0.0675,-4.3198,1.2689,4.503
47.5990,-0.4438,-4.3460,1.6383,4.666
47.6190,-0.9631,-3.9510,1.8128,4.452
47.6570,-1.4144,-3.5028,1.8322,4.198
47.6570,-1.7402,-3.2329,1.8215,4.098
47.6770,-2.2914,-2.9510,1.8155,4.154
47.6960,-2.9695,-2.3068,1.8389,4.186
47.7160,-3.7889,-1.3925,2.0257,4.516
47.7350,-4.7421,-0.1380,2.0960,5.187
47.7770,-5.3346,0.5951,1.7009,5.631
47.7780,-5.5199,0.2864,1.1702,5.650
47.7920,-5.4549,0.7893,0.7088,5.557
47.8120,-4.9569,1.4006,0.8026,5.213
47.8320,-4.2120,1.3675,1.2790,4.609
47.8770,-3.3803,-0.0905,2.1641,4.015
47.8770,-3.1423,-1.0990,2.6324,4.244
47.8890,-3.3138,-0.7252,2.7279,4.353
47.9090,-3.4429,0.6236,2.0307,4.046
47.9290,-3.1484,1.9068,0.6356,3.735
47.9490,-2.3402,2.1831,-0.5860,3.254
47.9900,-1.3243,1.4055,-1.4461,2.413
47.9910,-0.2113,0.1015,-1.9495,1.964
48.0060,0.6242,-0.5741,-2.0410,2.210
48.0250,1.5860,-0.6216,-1.6518,2.373
48.0460,2.4042,-0.1210,-1.2525,2.714
48.0650,3.2235,0.4934,-0.8572,3.372
48.0850,4.0115,0.5700,-0.8966,4.150
48.1300,4.3748,0.5950,-1.4149,4.636
48.1300,4.4724,0.7373,-1.7519,4.860
48.1410,4.4608,1.2309,-1.8497,4.984
48.1610,4.4566,2.0250,-1.7802,5.209
48.1830,4.3816,3.0321,-1.5495,5.549
48.2000,3.9327,4.6748,-1.3691,6.261
48.2200,3.2128,6.2133,-1.3770,7.129
48.2600,2.4412,7.0025,-1.6647,7.600
48.2600,1.8326,6.7353,-2.3405,7.362
48.2780,0.7151,7.3121,-2.3223,7.705
48.2970,-0.1429,9.1771,-2.0834,9.412
48.3170,-0.4611,8.7404,-1.9621,8.970
48.3370,-0.5271,5.9877,-2.3918,6.469
48.3770,-0.9091,2.6494,-2.3799,3.676
48.3780,-1.7973,0.9464,-1.2125,2.366
48.3940,-2.0690,0.3338,0.6274,2.188
48.4130,-2.1543,0.9866,2.1335,3.188
48.4340,-1.5958,0.7520,2.2927,2.893
48.4520,-0.7802,-0.2300,1.3611,1.586
48.4720,-0.7080,-1.4644,0.2336,1.643
48.5170,-0.6209,-3.3894,0.1109,3.448
48.5170,-0.3795,-4.8986,0.7178,4.965
48.5290,0.0890,-5.5170,1.0999,5.626
48.5490,0.2796,-5.0571,1.1782,5.200
48.5680,0.2087,-4.1296,1.0411,4.264
48.5880,-0.0587,-3.7477,1.0999,3.906
48.6110,-0.6328,-3.7630,1.0969,3.970
48.6480,-1.0049,-3.9315,1.2276,4.240
48.6480,-1.1131,-3.9023,1.2707,4.252
48.6650,-1.0899,-3.4632,1.1221,3.800
48.6850,-1.3073,-2.3779,0.9925,2.889
48.7070,-1.5810,-1.2165,1.1301,2.293
48.7240,-1.9700,-0.1344,1.3164,2.373
48.7620,-2.5962,1.1521,1.2526,3.104
48.7670,-3.3314,2.3380,0.8672,4.161
48.7820,-3.9218,2.8028,0.5094,4.847
48.8040,-4.1154,3.0673,0.0598,5.133
48.8210,-3.7955,2.5469,0.1584,4.574
48.8400,-2.7016,1.1054,1.0686,3.108
48.8600,-1.7693,-0.6909,2.2657,2.957
48.8960,-1.4899,-1.0221,3.0332,3.531
48.9010,-1.6856,0.2032,3.2958,3.707
48.9180,-1.7860,1.3552,2.3922,3.279
48.9380,-1.4452,1.5752,0.8329,2.294
48.9570,-1.0886,1.1182,-0.4179,1.616
48.9780,-0.6557,0.4241,-1.4162,1.617
48.9960,0.3598,-0.3587,-2.2522,2.309
49.0150,1.5640,-0.7664,-2.4607,3.015
49.0540,2.6774,-0.7169,-2.2904,3.596
49.0540,3.5498,-0.3306,-1.8571,4.020
49.0740,4.1382,-0.0032,-1.3487,4.352
49.0920,4.3910,0.0070,-1.0795,4.522
49.1130,4.4139,-0.3456,-1.0068,4.540
49.1320,4.1853,-0.3462,-1.0690,4.333
49.1700,3.8768,0.1166,-0.9634,3.996
49.1730,3.4357,0.9758,-0.7105,3.642
49.1890,2.6807,2.3875,-0.4791,3.622
49.2090,1.6214,4.1388,-0.5139,4.475
49.2290,0.6014,5.3066,-0.9399,5.423
49.2470,-0.2041,5.8197,-1.7850,6.091
49.2670,-0.6665,5.9014,-2.6384,6.499
49.3030,-0.8960,6.5593,-3.2042,7.355
49.3050,-0.8364,6.8029,-2.9475,7.461
49.3250,-0.7229,6.3453,-2.3466,6.804
49.3440,-0.2822,3.3069,-1.6344,3.699
49.3650,-0.1520,0.1209,-0.9159,0.936
49.3830,-0.4801,-1.1031,0.4180,1.274
49.4030,-1.0067,-0.7135,2.2743,2.587
49.4360,-1.1650,-0.1401,3.1929,3.402
49.4410,-0.8741,-0.1665,2.7438,2.884
49.4600,-0.7900,-1.1142,1.1401,1.779
49.4810,-0.5454,-2.8489,0.4041,2.929
49.5100,-0.1753,-3.8911,0.5437,3.933
49.5190,0.5812,-4.5137,0.8335,4.627
49.5680,1.1814,-4.3010,0.9322,4.557
49.5680,1.5557,-3.8620,1.0680,4.298
49.5780,1.6980,-3.7239,1.1450,4.250
49.5970,1.3935,-3.5974,1.1530,4.026
49.6170,1.1332,-3.4337,1.2535,3.827
49.6350,0.9205,-3.1470,1.3459,3.544
49.6560,0.6292,-2.5872,1.3321,2.977
49.6860,0.1465,-1.8752,1.3317,2.305
49.6930,-0.5162,-0.8810,1.3825,1.719
49.7120,-1.3222,0.0814,1.3607,1.899
49.7330,-2.1583,1.0890,1.4485,2.818
49.7520,-2.8989,2.1524,1.3259,3.846
49.7720,-3.3407,2.6326,1.2237,4.426
49.7910,-3.5854,3.2165,1.1621,4.955
49.8120,-3.6342,3.2943,1.4660,5.119
49.8600,-3.4587,2.9465,1.9646,4.950
49.8600,-3.1699,1.6537,2.6153,4.430
49.8680,-2.9405,0.1258,2.9491,4.167
49.8870,-2.8644,-0.4290,3.0542,4.209
49.9070,-2.9584,0.3763,2.3442,3.793
49.9270,-2.8355,1.1366,0.9198,3.190
49.9460,-2.2415,0.6579,-0.3247,2.359
49.9920,-1.3130,-0.3365,-1.2645,1.854
49.9930,-0.2030,-1.1310,-1.8704,2.195
50.0040,1.0980,-1.5768,-2.2737,2.977
50.0230,2.2085,-1.4042,-2.1869,3.411
50.0430,3.0025,-0.9860,-1.8392,3.657
50.0650,3.5020,-0.5639,-1.0923,3.712
50.0830,3.5117,-0.5566,-1.1174,3.727
50.1280,3.3183,-0.8911,-1.6969,3.832
50.1280,3.2364,-0.9505,-2.2525,4.056
50.1390,3.0959,-0.4021,-2.5951,4.060
50.1590,2.8707,0.5591,-2.6672,3.958
50.1780,2.6194,1.8154,-2.5234,4.065
50.2000,2.1459,3.5064,-2.3102,4.716
50.2190,1.4438,5.0262,-2.1731,5.663
50.2590,0.6077,5.6489,-2.2854,6.124
50.2590,0.2495,5.1383,-2.6190,5.773
50.2760,-0.3589,5.2927,-2.7226,5.963
50.2950,-0.6788,6.1842,-2.3993,6.668
50.3160,-0.6331,6.3176,-1.5791,6.543
50.3340,-0.2843,4.7253,-1.1943,4.882
50.3540,-0.1100,1.9666,-0.9555,2.189
50.3920,-0.4002,0.1782,-0.2643,0.512
50.3920,-0.9017,-0.4661,1.1317,1.520
50.4110,-1.4892,0.2405,2.2334,2.695
50.4310,-1.1743,0.3812,1.8359,2.212
50.4500,-0.3304,-0.3235,0.4553,0.649
50.4710,-0.0756,-0.8955,-0.4377,1.000
50.5130,-0.0415,-1.7561,-0.2880,1.780
50.5140,0.3261,-2.8504,-0.0490,2.869
50.5270,0.6914,-3.8119,0.1870,3.879
50.5470,0.9559,-4.1111,0.2279,4.227
50.5670,1.1366,-3.9799,0.1594,4.142
50.5860,1.0202,-3.8675,0.2497,4.008
50.6060,0.7276,-3.7291,0.5599,3.840
50.6440,0.4186,-3.4517,1.0994,3.647
50.6450,0.0744,-3.0470,1.5611,3.424
50.6630,-0.3145,-2.7190,1.8562,3.307
50.6830,-0.6738,-2.4721,1.9534,3.222
50.7050,-1.1763,-1.8021,1.8417,2.833
50.7230,-1.8242,-0.5397,1.8163,2.630
50.7640,-2.7532,1.0120,1.9176,3.504
50.7640,-3.7516,2.2381,1.7511,4.706
50.7800,-4.2064,2.0134,1.2159,4.819
50.7990,-4.3411,1.7357,0.5670,4.709
50.8190,-3.9782,1.7924,0.4140,4.383
50.8380,-3.1458,1.8191,1.3372,3.872
50.8580,-2.4061,0.9133,2.6359,3.684
50.8940,-2.3217,0.0336,3.2332,3.981
50.8960,-2.6013,0.1251,3.0652,4.022
50.9150,-3.0156,1.2892,1.9269,3.804
50.9340,-3.0898,2.3279,0.2353,3.876
50.9550,-2.6098,2.2571,-1.1556,3.639
50.9740,-1.7023,1.3181,-2.2069,3.083
50.9940,-0.5605,0.1212,-2.8471,2.904
51.0340,0.5799,-0.8242,-2.9003,3.070
51.0340,1.6547,-1.1604,-2.6475,3.331
51.0510,2.6982,-1.2996,-2.1761,3.702
51.0710,3.5255,-1.0928,-1.7992,4.106
51.0900,4.0759,-1.0340,-1.5406,4.478
51.1100,4.3862,-1.0481,-1.6388,4.798
51.1290,4.4586,-1.0607,-1.7503,4.906
51.1490,4.3703,-0.6713,-1.8054,4.776
51.1860,4.1175,0.1496,-1.6453,4.437
51.1870,3.6371,1.6712,-1.3796,4.234
51.2070,2.8178,3.6764,-1.1221,4.766
51.2250,1.6893,5.3478,-1.1415,5.723
51.2460,0.4463,6.1538,-1.5987,6.374
51.2660,-0.3509,5.7248,-2.2802,6.172
51.3020,-0.9786,5.3514,-2.6372,6.046
51.3030,-1.4764,5.8762,-2.6001,6.593
51.3220,-1.6422,6.4037,-1.9565,6.894
51.3430,-1.6195,6.1248,-1.4703,6.504
51.3610,-1.1079,3.7861,-1.3281,4.162
51.3810,-0.8890,0.7926,-1.0999,1.621
51.4010,-0.8863,-1.3154,-0.4146,1.639
51.4320,-0.8178,-1.5463,0.6728,1.874
51.4400,-0.4921,-0.2467,1.2252,1.343
51.4590,0.2087,0.4553,1.0044,1.122
51.4780,0.4738,0.4119,0.7381,0.969
51.4980,0.3700,-0.7608,0.5724,1.021
51.5170,0.1430,-2.1411,0.4954,2.202
51.5380,0.2321,-3.4028,0.9286,3.535
51.5710,0.2929,-3.8468,1.3452,4.086
51.5750,0.4183,-3.8032,1.6098,4.151
51.5940,0.5000,-3.6001,1.7731,4.044
51.6140,0.4514,-3.6891,1.8843,4.167
51.6340,0.3621,-3.8865,2.0378,4.403
51.6520,0.2874,-3.7852,2.3359,4.457
51.6720,0.1356,-3.4206,2.4789,4.227
51.7010,-0.0766,-2.9158,2.2391,3.677
51.7110,-0.3628,-2.3311,1.9089,3.035
51.7300,-1.0392,-1.1945,1.7235,2.340
51.7490,-1.8940,0.1448,1.6271,2.501
51.7690,-2.7840,1.3478,1.2671,3.343
51.7890,-3.2595,1.9996,0.5015,3.857
51.8080,-3.7237,2.5580,-0.2112,4.523
51.8270,-3.7824,3.2168,-0.6946,5.014
51.8750,-3.1861,3.1835,-0.4610,4.528
51.8760,-2.3514,2.3213,0.2670,3.315
51.8850,-1.8314,0.6779,1.1768,2.280
51.9040,-1.5959,-0.3227,1.3746,2.131
51.9240,-1.6804,-0.1925,1.5567,2.299
51.9470,-1.8387,1.0970,1.2150,2.462
51.9620,-1.5327,1.8653,0.2769,2.430
51.9820,-1.1128,1.4890,-0.8461,2.042
52.0020,-0.7083,0.4154,-1.8292,2.005
52.0210,-0.0707,-0.6524,-2.4504,2.537
52.0410,0.8237,-1.1906,-2.5589,2.940
52.0600,1.7220,-1.2615,-2.2326,3.089
52.0820,2.5084,-1.2981,-1.8259,3.363
52.1210,3.0801,-1.3351,-1.5313,3.690
52.1210,3.3324,-1.1640,-1.4038,3.799
52.1370,3.3898,-0.9832,-1.5211,3.843
52.1560,3.3490,-0.6944,-1.8244,3.876
52.1760,3.2113,0.0246,-2.0437,3.807
52.2000,3.1394,0.7718,-2.0610,3.834
52.2150,2.8360,1.9585,-1.8963,3.934
52.2570,2.1893,3.6222,-1.7000,4.561
52.2580,1.2147,5.1440,-1.5000,5.494
52.2730,0.2760,5.9571,-1.5128,6.152
52.2940,-0.1878,5.4937,-1.8537,5.801
52.3360,-0.5833,4.8368,-1.9333,5.241
52.3360,-1.0719,5.4210,-1.4733,5.719
52.3500,-1.0504,5.4475,-0.6174,5.582
52.3700,-1.0188,4.1734,-0.0509,4.296
52.3900,-0.9365,0.9809,0.2953,1.388
52.4090,-1.2028,-2.1197,1.3368,2.780
52.4290,-1.3451,-3.1789,2.3275,4.163
52.4500,-1.9513,-1.0037,2.8958,3.633
52.4690,-1.5012,0.7790,2.2321,2.800
52.5150,-0.7079,1.2175,0.4690,1.484
52.5160,-0.3242,-0.1138,-0.7357,0.812
52.5250,0.1011,-2.1952,-0.9454,2.392
52.5440,0.6809,-3.4761,-0.3097,3.556
52.5660,1.5123,-3.8927,0.2211,4.182
52.5870,2.2153,-3.6973,0.4470,4.333
52.6310,2.5208,-3.6702,0.4541,4.476
52.6310,2.2629,-3.6831,0.3178,4.334
52.6410,1.9618,-3.7160,0.3063,4.213
52.6610,1.5203,-3.4894,0.5886,3.851
52.6810,1.1431,-3.1501,0.8528,3.458
52.7010,0.8844,-2.8170,0.9767,3.110
52.7220,0.4455,-2.0476,0.9899,2.318
52.7630,-0.2510,-0.8658,0.9689,1.323
52.7630,-1.0728,0.3168,0.9640,1.477
52.7770,-1.7532,1.0531,0.9285,2.246
52.7970,-2.5180,1.8841,0.8054,3.246
52.8160,-3.1199,2.4643,0.5921,4.020
52.8370,-3.4635,2.3561,0.5516,4.225
52.8550,-3.7390,2.8563,0.5039,4.732
52.8760,-3.5158,3.0815,1.0374,4.789
52.9120,-2.8678,2.1159,2.1625,4.169
52.9170,-2.3914,0.0614,3.0836,3.903
52.9320,-2.3767,-1.3076,3.5662,4.481
52.9520,-2.5951,-0.7999,3.3856,4.340
52.9720,-2.7506,1.6216,2.2953,3.932
53.0120,-2.3279,3.2360,0.6090,4.033
53.0130,-1.3872,2.8690,-0.6311,3.249
53.0300,-0.2177,0.9315,-1.4462,1.734
53.0490,0.7697,-0.6802,-1.6729,1.963
53.0700,1.5880,-1.5955,-1.4290,2.666
53.0880,2.3736,-2.0519,-1.1757,3.351
53.1180,3.0421,-1.9676,-0.7416,3.698
53.1260,3.4377,-1.4235,-0.4726,3.751
53.1470,3.6773,-1.1451,-0.5273,3.887
53.1700,3.6961,-1.0151,-0.8364,3.923
53.2100,3.6226,-0.8076,-1.0585,3.860
53.2110,3.5360,-0.4350,-1.2310,3.769
53.2230,3.2798,0.6528,-1.2714,3.578
53.2430,2.9074,2.2806,-1.0718,3.847
53.2620,2.3632,4.1341,-1.1238,4.893
53.2820,1.5808,5.4365,-1.1522,5.778
53.3010,0.6016,6.0639,-1.5385,6.285
53.3240,-0.0501,5.6635,-2.1441,6.056
53.3670,-0.6328,5.4296,-2.1918,5.889
53.3680,-0.9108,5.8502,-1.9900,6.246
53.3780,-0.9504,5.7759,-1.3494,6.007
53.3980,-0.8768,4.7515,-1.2225,4.984
53.4170,-0.5927,1.7803,-1.2541,2.257
53.4370,-0.6944,-0.5777,-0.6703,1.125
53.4560,-0.9633,-1.2298,0.3881,1.610
53.4760,-1.1198,0.1470,1.1277,1.596
53.5150,-0.5723,0.9055,0.9936,1.461
53.5160,-0.0389,0.5423,0.5404,0.767
53.5340,0.0202,-0.6159,-0.0884,0.623
53.5540,0.0071,-2.3390,-0.4048,2.374
53.5930,0.3600,-3.5878,-0.1469,3.609
53.5930,0.9370,-4.2102,0.4129,4.333
53.6120,1.3522,-4.4555,0.7449,4.715
53.6310,1.3621,-4.4783,0.9868,4.784
53.6500,1.1282,-4.3267,1.0213,4.586
53.6720,0.7488,-4.1496,1.0579,4.347
53.6890,0.3038,-3.6921,1.1222,3.871
53.7080,-0.0558,-3.2016,1.1365,3.398
53.7470,-0.3569,-2.6996,1.0237,2.909
53.7470,-0.7254,-1.9953,0.8286,2.279
53.7670,-1.1440,-0.9371,0.9180,1.741
53.7860,-1.7078,0.3708,1.1775,2.107
53.8060,-2.5405,1.7519,1.4435,3.407
53.8260,-3.2253,2.4507,1.3650,4.275
53.8450,-3.4969,1.8655,1.0443,4.099
53.8890,-3.7056,1.8782,0.6429,4.204
53.8890,-3.4251,2.0549,0.7861,4.071
53.9020,-2.6961,1.6869,1.6718,3.593
53.9220,-2.2266,0.1595,2.7560,3.547
53.9420,-2.3408,-0.6772,3.3679,4.157
53.9610,-2.9867,0.1756,3.2259,4.400
53.9810,-3.6373,1.9385,2.0560,4.606
54.0170,-3.2191,2.3940,0.2907,4.022
54.0190,-2.4193,1.7104,-0.8072,3.071
54.0380,-1.3321,0.3394,-1.5410,2.065
54.0570,-0.1644,-0.9072,-1.8985,2.111
54.0770,0.9564,-1.6788,-1.8831,2.698
54.0970,1.8775,-1.7130,-1.7012,3.058
54.1170,2.6085,-1.3231,-1.3350,3.215
54.1530,3.2300,-0.8726,-1.0806,3.516
54.1540,3.5800,-0.5771,-1.3095,3.855
54.1730,3.7446,-0.4850,-1.6507,4.121
54.1930,3.8738,-0.0879,-1.6769,4.222
54.2130,3.9302,0.6384,-1.6060,4.293
54.2320,3.9231,1.5865,-1.4159,4.462
54.2510,3.6315,2.8153,-1.2117,4.752
54.2760,2.9469,4.3085,-1.2405,5.365
54.2900,1.8591,5.4416,-1.4113,5.921
54.3090,0.8067,5.8944,-1.9441,6.259
54.3290,0.1849,5.5131,-2.4182,6.023
54.3490,-0.4208,5.7605,-2.3100,6.221
54.3680,-0.6094,6.1963,-1.7832,6.476
54.3880,-0.7037,5.8121,-1.0724,5.952
54.4200,-0.5896,4.2028,-1.1533,4.398
54.4260,-0.2887,1.2704,-1.3556,1.880
54.4450,-0.1946,-0.8091,-0.8032,1.157
54.4650,-0.3232,-0.9403,0.3479,1.053
54.4840,-0.6666,0.7996,1.4057,1.749
54.5040,-0.4267,1.8086,1.4193,2.338
54.5240,-0.0147,1.2554,0.8369,1.509
54.5430,-0.2129,-0.3460,0.0090,0.406
54.5710,-0.4897,-1.9018,-0.4736,2.020
54.5810,-0.1731,-3.3639,-0.1415,3.371
54.6000,0.3222,-4.2684,0.3863,4.298
54.6200,0.8479,-4.7118,0.7591,4.847
54.6390,1.1264,-4.6889,0.9502,4.915
54.6590,1.0312,-4.4153,1.1008,4.666
54.6790,0.6819,-3.9844,1.2691,4.237
54.7130,0.3078,-3.6630,1.5592,3.993
54.7170,-0.0006,-3.3081,1.7217,3.729
54.7360,-0.3361,-2.6525,1.7303,3.185
54.7550,-0.7660,-1.5946,1.6017,2.386
54.7750,-1.2576,-0.5464,1.5121,2.041
54.7950,-1.9401,0.7862,1.4407,2.541
54.8290,-2.8200,2.2886,1.4184,3.899
54.8330,-3.5121,2.9124,1.1484,4.705
54.8520,-3.8003,2.1858,0.8157,4.459
54.8720,-3.8482,1.9612,0.4791,4.346
54.8920,-3.2894,1.9912,0.8196,3.932
54.9110,-2.4198,1.2081,1.6266,3.156
54.9310,-2.0080,-0.2853,2.5984,3.296
54.9580,-2.0626,-1.0719,3.1149,3.887
54.9690,-2.4695,-0.2641,2.8600,3.788
54.9880,-2.8109,1.4739,1.6423,3.574
55.0080,-2.6634,2.2808,-0.0066,3.507
55.0270,-2.0006,1.6579,-1.3096,2.910
55.0470,-1.1577,-0.0328,-2.1195,2.415
55.0660,-0.2486,-1.5177,-2.3963,2.847
55.0920,0.5748,-2.1920,-2.1173,3.101
55.1090,1.4023,-2.3645,-1.7020,3.233
55.1250,2.2077,-2.2600,-1.3265,3.427
55.1450,2.8089,-1.9535,-1.0305,3.573
55.1630,3.1517,-1.4417,-0.9536,3.595
55.1880,3.2324,-1.0156,-1.1942,3.593
55.2280,3.1732,-0.3780,-1.3480,3.468
55.2290,3.1993,0.2555,-1.4160,3.508
55.2400,3.0656,1.0983,-1.4060,3.547
55.2590,2.7051,2.2560,-1.2610,3.741
55.2800,2.1680,3.6452,-1.2447,4.420
55.2990,1.3543,5.0847,-1.3640,5.436
55.3180,0.5732,5.9779,-1.6373,6.225
55.3370,0.1824,5.8733,-2.0709,6.230
55.3570,-0.3082,5.9465,-2.0833,6.308
55.3770,-0.5490,6.1440,-1.9037,6.456
55.3960,-0.6419,5.7723,-1.3586,5.965
55.4150,-0.5272,4.1149,-1.1485,4.305
55.4390,-0.1962,1.2302,-1.0842,1.651
55.4830,-0.3045,-1.0394,-0.3387,1.135
55.4840,-0.5885,-1.2178,0.6711,1.510
55.4930,-0.7987,0.6082,1.3291,1.666
55.5120,-0.3622,1.7281,0.8912,1.978
55.5310,0.3005,1.1427,0.0599,1.183
55.5520,0.3378,-0.5741,-0.7177,0.979
55.5710,0.3724,-2.2592,-1.1435,2.559
55.5920,0.7472,-3.4434,-0.7142,3.595
55.6340,1.2987,-3.9931,-0.0769,4.200
55.6350,1.7098,-4.1537,0.2916,4.501
55.6470,1.7366,-4.1049,0.4350,4.478
55.6670,1.3657,-3.9177,0.4430,4.173
55.6870,0.8549,-3.6020,0.5234,3.739
55.7060,0.3926,-3.0897,0.7424,3.202
55.7260,0.0160,-2.5375,0.9488,2.709
55.7710,-0.3550,-1.9473,0.9592,2.200
55.7720,-0.9057,-1.4373,0.8740,1.911
55.7830,-1.5986,-0.6174,1.0136,1.991
55.8030,-2.4205,0.5402,1.1143,2.719
55.8240,-3.2430,1.7020,1.2428,3.868
55.8420,-3.7398,2.1293,1.1370,4.451
55.8630,-4.0532,1.7980,0.9957,4.545
55.8820,-4.0496,1.5639,1.0430,4.465
55.9140,-3.7329,1.5970,1.5117,4.332
55.9190,-3.0818,1.1977,2.1366,3.937
55.9380,-2.5576,-0.2873,3.0202,3.968
55.9580,-2.5277,-1.4435,3.2006,4.326
55.9780,-2.9466,-0.5145,2.7301,4.050
56.0180,-3.2045,1.3629,1.3686,3.742
56.0180,-2.7376,2.1372,-0.3917,3.495
56.0360,-1.8726,1.4424,-1.6046,2.857
56.0610,-0.7763,0.0707,-2.2155,2.349
56.1000,0.1938,-1.1098,-2.1657,2.441
56.1000,0.9959,-1.6861,-1.9494,2.763
56.1150,1.6140,-1.9133,-1.6577,3.002
56.1320,2.0105,-1.6833,-1.4991,3.020
56.1530,2.2642,-1.1616,-1.5509,2.980
56.1710,2.7848,-0.4773,-1.5250,3.211
56.1910,3.3750,0.0401,-1.5004,3.694
56.2130,3.8006,0.3639,-1.5008,4.102
56.2540,3.8825,0.5720,-1.3447,4.148
56.2540,3.6143,1.0312,-1.1494,3.930
56.2680,3.0568,2.1428,-0.9602,3.855
56.2880,2.3466,3.5929,-0.9288,4.391
56.3110,1.5864,5.1018,-1.0732,5.449
56.3270,0.8450,6.1011,-1.5365,6.348
56.3470,0.4637,5.8617,-2.1555,6.263
56.3660,-0.1492,5.8941,-2.2753,6.320
56.4070,-0.5399,6.2458,-2.0760,6.604
56.4070,-0.6975,6.3083,-1.4292,6.506
56.4240,-0.4594,5.0212,-1.0904,5.159
56.4450,-0.2291,2.3737,-0.8483,2.531
56.4650,-0.5933,0.4460,-0.0896,0.748
56.5080,-0.9850,-0.3770,0.9186,1.399
56.5090,-1.4396,0.6399,1.6081,2.251
56.5200,-0.8907,1.0725,1.2419,1.867
56.5400,0.0457,0.3785,0.3470,0.516
56.5600,0.3473,-0.8007,-0.4412,0.978
56.5790,0.4411,-2.3726,-0.4480,2.454
56.5990,0.7304,-3.5993,-0.1071,3.674
56.6370,1.2708,-4.4353,0.3559,4.627
56.6380,1.6594,-4.6910,0.5281,5.004
56.6560,1.7617,-4.3515,0.4488,4.716
56.6760,1.5142,-4.0023,0.3120,4.290
56.6950,1.0647,-3.7411,0.4056,3.911
56.7150,0.6365,-3.3248,0.7673,3.471
56.7370,0.3328,-2.8687,1.0771,3.082
56.7750,0.0084,-2.3396,1.2229,2.640
56.7800,-0.4166,-1.7277,1.2881,2.195
56.7920,-0.9613,-0.7451,1.2662,1.756
56.8120,-1.5806,0.3636,1.1777,2.004
56.8310,-2.3351,1.6548,1.2088,3.107
56.8520,-3.1382,2.8842,1.2057,4.429
56.8710,-3.8230,3.4401,1.1814,5.277
56.9120,-4.1311,3.3673,0.9437,5.413
56.9120,-3.9924,2.9584,0.8438,5.040
56.9280,-3.2798,1.8371,1.2409,3.959
56.9470,-2.4106,-0.0968,2.0803,3.186
56.9690,-1.9624,-1.5970,2.9975,3.923
56.9870,-1.9308,-1.5486,3.2299,4.069
57.0060,-2.2188,0.2648,2.5436,3.386
57.0260,-2.2295,1.7427,0.9749,2.993
57.0570,-1.7819,1.6533,-0.5318,2.488
57.0650,-1.0253,0.4639,-1.5245,1.895
57.0830,-0.1583,-0.9036,-1.9561,2.161
57.1040,0.6953,-1.7455,-2.0036,2.747
57.1220,1.5367,-1.9287,-1.7976,3.052
57.1410,2.2239,-1.6302,-1.1943,3.005
57.1610,2.7198,-1.2643,-0.8525,3.118
57.1930,3.0976,-1.1639,-0.8658,3.420
57.1990,3.1398,-1.0230,-1.2229,3.521
57.2180,3.0273,-0.7069,-1.4049,3.411
57.2380,2.9004,-0.2011,-1.3858,3.221
57.2580,2.7557,0.6871,-1.1863,3.078
57.2770,2.5216,1.9663,-1.0368,3.362
57.2970,2.1055,3.1105,-0.9779,3.881
57.3300,1.3628,4.2796,-1.0608,4.615
57.3350,0.5042,5.0699,-1.2025,5.235
57.3550,0.0763,5.2816,-1.7192,5.555
57.3740,-0.3059,5.4750,-1.9309,5.814
57.3940,-0.5071,6.0009,-1.7634,6.275
57.4130,-0.7723,5.7906,-1.2366,5.971
57.4320,-0.9449,4.6186,-1.0180,4.823
57.4610,-0.7109,1.7907,-1.0421,2.190
57.4720,-0.7495,-0.7719,-0.5479,1.207
57.4910,-0.9186,-1.5877,0.4410,1.887
57.5100,-0.7407,-0.2805,1.3214,1.541
57.5290,-0.0463,0.7218,1.1850,1.388
57.5480,0.6315,0.7236,0.5830,1.123
57.5690,0.7837,-0.1770,-0.0669,0.806
57.5940,0.6771,-1.7456,-0.3728,1.909
57.6070,0.8784,-3.1653,-0.1500,3.288
57.6260,1.1960,-3.9528,0.2504,4.137
57.6460,1.5406,-4.2050,0.3559,4.492
57.6660,1.6890,-4.3395,0.3064,4.667
57.6870,1.5008,-4.2058,0.4607,4.489
57.7140,1.1268,-3.9462,0.7222,4.167
57.7230,0.6332,-3.4533,0.9928,3.649
57.7430,0.2713,-2.8798,1.1345,3.107
57.7620,-0.0186,-2.2388,0.9843,2.446
57.7810,-0.3781,-1.2069,0.7054,1.448
57.8030,-0.7602,-0.2598,0.6373,1.025
57.8290,-1.3511,0.7129,0.7981,1.724
57.8440,-2.2313,1.9553,1.0855,3.159
57.8590,-3.0751,2.9997,1.0526,4.423
57.8790,-3.4450,2.7648,0.7460,4.480
57.8980,-3.6523,2.4682,0.4699,4.433
57.9180,-3.2366,2.4310,0.7460,4.116
57.9380,-2.6392,2.1206,1.6305,3.758
57.9710,-2.0610,0.5141,2.5824,3.344
57.9750,-1.9830,-1.0954,3.4066,4.091
57.9950,-2.1894,-1.6973,3.6665,4.595
58.0150,-2.7417,-0.2499,3.1443,4.179
58.0350,-2.8897,1.4938,1.6865,3.664
58.0540,-2.3873,1.8834,0.1470,3.044
58.0840,-1.6765,0.8533,-0.9270,2.097
58.0910,-0.7629,-0.6912,-1.6764,1.967
58.1120,0.1853,-1.7211,-1.9004,2.571
58.1300,1.0089,-2.0288,-1.7620,2.870
58.1500,1.8300,-1.8309,-1.4901,2.987
58.1750,2.4987,-1.5132,-1.1348,3.134
58.2030,3.0088,-1.2609,-1.0065,3.414
58.2080,3.2863,-0.9703,-1.2488,3.647
58.2300,3.3469,-0.7142,-1.6941,3.819
58.2470,3.2685,-0.2302,-1.9011,3.788
58.2680,3.1190,0.4100,-1.9689,3.711
58.2860,2.7416,1.4666,-1.8641,3.625
58.3070,2.2049,3.0531,-1.6577,4.115
58.3320,1.5824,5.0741,-1.5788,5.545
58.3440,0.8527,6.3769,-1.6943,6.653
58.3630,0.2238,6.3898,-2.1501,6.746
58.3830,-0.1078,5.3965,-2.6062,5.994
58.4020,-0.6695,5.3714,-2.6179,6.013
58.4290,-0.6693,5.2306,-2.1177,5.683
58.4640,-0.4782,4.9350,-1.3809,5.147
58.4640,-0.0436,3.3105,-1.1409,3.502
58.4800,0.2196,0.6596,-1.0573,1.265
58.4990,0.0246,-0.8466,-0.3356,0.911
58.5190,-0.3392,-0.7821,0.7676,1.147
58.5380,-0.7027,0.5216,1.5587,1.788
58.5570,-0.6544,1.2017,1.4800,2.016
58.5810,-0.2410,0.3236,0.7937,0.890
58.6240,-0.1568,-1.2314,0.1243,1.248
58.6240,-0.1470,-2.7070,-0.0640,2.712
58.6350,0.2240,-3.8746,0.3573,3.898
58.6540,0.8583,-4.5685,0.7756,4.713
58.6740,1.3586,-4.7220,0.7510,4.971
58.6960,1.5573,-4.3105,0.5636,4.618
58.7120,1.4910,-3.8123,0.5773,4.134
58.7350,1.2430,-3.4351,0.7308,3.725
58.7720,0.9235,-2.9534,0.9138,3.226
58.7730,0.5719,-2.3675,0.8806,2.590
58.7890,0.2329,-1.8324,0.8663,2.040
58.8090,-0.1467,-1.2521,1.0046,1.612
58.8290,-0.6950,-0.4738,1.1546,1.428
58.8530,-1.3696,0.4257,1.3301,1.956
58.8690,-2.2354,1.6438,1.5718,3.189
58.9090,-3.0153,2.7495,1.5528,4.366
58.9090,-3.6642,3.1108,1.2524,4.967
58.9260,-4.0493,2.9451,0.8240,5.074
58.9450,-4.0231,2.5861,0.8173,4.852
58.9650,-3.5175,1.8232,1.2955,4.168
58.9860,-2.9486,0.0143,2.0677,3.601
59.0040,-2.6121,-1.6094,2.8277,4.172
59.0450,-2.5839,-1.6730,3.1351,4.394
59.0460,-2.7141,0.0230,2.5462,3.722
59.0610,-2.4618,1.4498,1.2411,3.115
59.0810,-1.8874,1.3348,-0.1385,2.316
59.1010,-1.2667,-0.0614,-1.0740,1.662
59.1230,-0.4598,-1.6062,-1.5994,2.313
59.1390,0.2676,-2.3777,-1.8370,3.017
59.1730,0.8188,-2.3418,-1.7641,3.044
59.1780,1.4172,-1.8838,-1.5362,2.814
59.1970,2.0891,-1.5534,-1.3488,2.932
59.2170,2.6062,-1.3256,-1.3495,3.220
59.2370,2.9006,-1.1417,-1.4912,3.456
59.2570,2.7958,-0.6995,-1.7397,3.366
59.2750,2.6620,-0.0968,-1.8852,3.263
59.2950,2.5323,0.7045,-1.7828,3.176
59.3330,2.3499,1.9858,-1.5013,3.423
59.3340,1.9223,3.8803,-1.2761,4.514
59.3540,1.3962,5.4246,-1.1799,5.724
59.3720,0.9317,5.9172,-1.6747,6.220
59.3910,0.5280,5.5342,-2.2320,5.991
59.4110,-0.1707,6.1754,-2.2948,6.590
59.4310,-0.5145,6.6262,-2.0269,6.948
59.4630,-0.7326,6.2941,-1.5420,6.521
59.4680,-0.3399,3.9938,-1.3822,4.240
59.4880,-0.0523,0.7816,-1.1266,1.372
59.5080,-0.2572,-0.8594,-0.1046,0.903
59.5270,-0.4370,-0.2752,1.3997,1.492
59.5470,-0.2466,0.9128,1.9763,2.191
59.5660,0.5152,0.8284,1.1380,1.499
59.5900,1.0508,-0.1529,0.2407,1.089
59.6040,0.9872,-1.5566,-0.1236,1.847
59.6240,0.9675,-2.6062,0.1789,2.786
59.6430,1.4593,-3.4685,0.6878,3.825
59.6630,1.9254,-3.7942,0.8048,4.330
59.6830,2.0910,-3.7503,0.4849,4.321
59.7020,1.9235,-3.6746,0.0052,4.148
59.7280,1.3928,-3.5627,0.0185,3.825
59.7400,0.9550,-3.3355,0.4488,3.498
59.7590,0.6378,-2.8461,0.7998,3.024
59.7800,0.3540,-2.1823,0.9584,2.410
59.7980,-0.0331,-1.4514,0.8083,1.662
59.8180,-0.6088,-0.7724,0.6793,1.195
59.8410,-1.2911,0.1936,0.7379,1.500
59.8810,-2.0630,1.1158,1.0586,2.573
59.8810,-2.9405,2.1431,1.3035,3.865
59.8950,-3.6911,2.7416,1.2584,4.767
59.9150,-4.0541,2.2050,1.1057,4.746
59.9340,-4.0426,1.9031,0.8415,4.547
59.9580,-3.4681,1.5364,1.1949,3.977
59.9960,-2.7872,0.7753,1.9139,3.469
59.9960,-2.3835,-0.6340,2.7846,3.720
60.0120,-2.4487,-1.5012,3.2015,4.301
60.0310,-2.7385,-0.8764,2.6627,3.919
60.0510,-3.0622,0.8428,1.2120,3.399
60.0700,-2.7303,1.7219,-0.4678,3.262
60.0900,-1.9428,1.5382,-1.6358,2.969
60.1130,-0.8911,0.6363,-2.3414,2.585
60.1520,0.0771,-0.2141,-2.7250,2.734
60.1530,1.2132,-0.8261,-2.4283,2.837
60.1680,2.0819,-1.1411,-2.1804,3.223
60.1860,2.8179,-1.1398,-1.7817,3.523
60.2060,3.4349,-1.0962,-1.5505,3.925
60.2260,3.7090,-1.0102,-1.6094,4.167
60.2460,3.7157,-0.9548,-1.5908,4.153
60.2910,3.6119,-0.6607,-1.3003,3.895
60.2920,3.5042,-0.1014,-1.1213,3.681
60.3020,3.2887,0.6429,-1.0211,3.503
60.3220,2.8171,1.8550,-0.9226,3.497
60.3420,2.0748,3.3265,-0.8516,4.012
60.3620,1.1604,4.5312,-0.8393,4.752
60.3820,0.3043,5.0262,-1.1614,5.168
60.4170,-0.0606,4.7991,-1.6190,5.065
60.4190,-0.4978,5.1906,-1.5837,5.450
60.4380,-0.6715,5.6801,-1.0801,5.821
60.4580,-0.9069,5.7575,-0.3949,5.842
60.4780,-0.9959,4.1927,-0.1944,4.314
60.4970,-1.0779,1.7091,-0.1888,2.029
60.5170,-1.2284,-0.3836,0.3141,1.325
60.5610,-1.4277,-1.0198,1.0668,2.053
60.5620,-1.1553,-0.5934,1.3728,1.890
60.5740,-0.1750,-0.4104,0.8897,0.995
60.5930,0.3970,-0.3417,0.2442,0.578
60.6130,0.6242,-0.9815,-0.1969,1.180
60.6330,0.7502,-2.0924,-0.2948,2.242
60.6520,1.0592,-3.1104,-0.0954,3.287
60.6710,1.3865,-3.8234,0.2082,4.072
60.7020,1.5468,-4.1423,0.2349,4.428
60.7100,1.5447,-4.1509,0.1472,4.431
60.7290,1.4326,-4.0847,0.1744,4.332
60.7510,1.1412,-3.7440,0.2648,3.923
60.7680,0.8587,-3.0984,0.5093,3.255
60.7880,0.4767,-2.2299,0.6805,2.380
60.8080,0.0634,-1.7427,0.7590,1.902
60.8370,-0.4063,-1.3463,0.6987,1.570
60.8460,-0.9481,-0.4755,0.6849,1.263
60.8650,-1.5531,0.5407,0.8308,1.842
60.8850,-2.3470,1.6829,1.1159,3.096
60.9040,-3.0788,2.4828,1.0521,4.093
60.9230,-3.5666,2.2874,0.7515,4.303
60.9430,-3.8255,2.3410,0.3870,4.502
60.9710,-3.4094,2.1166,0.6479,4.065
60.9810,-2.7447,1.2412,1.5646,3.394
61.0010,-2.3307,-0.1579,2.6689,3.547
61.0200,-2.2426,-0.9993,3.1307,3.979
61.0390,-2.3763,-0.4012,2.7904,3.687
61.0590,-2.6566,1.4421,1.6394,3.439
61.0800,-2.3549,2.4681,0.1462,3.415
61.1100,-1.6599,2.0192,-1.0355,2.812
61.1170,-0.6837,0.5582,-1.7695,1.977
61.1370,0.4081,-0.8082,-1.9192,2.122
61.1560,1.3729,-1.5833,-1.8071,2.767
61.1750,2.3604,-1.8996,-1.8039,3.526
61.1950,3.1709,-1.7966,-1.7834,4.057
61.2280,3.6518,-1.3752,-1.5579,4.202
61.2330,3.7669,-0.7278,-1.3082,4.053
61.2540,3.6689,-0.6487,-1.2705,3.936
61.2720,3.5831,-0.8026,-1.4036,3.931
61.2920,3.5017,-0.5360,-1.4998,3.847
61.3110,3.1535,0.7180,-1.4585,3.548
61.3340,2.4568,2.2882,-1.1709,3.556
61.3570,1.5646,3.5991,-1.0245,4.056
61.3700,0.5638,4.4052,-1.1709,4.593
61.3900,-0.3483,5.1296,-1.5608,5.373
61.4090,-0.5772,5.2553,-1.8438,5.599
61.4290,-0.8795,5.4097,-1.7411,5.751
61.4480,-0.9960,5.4337,-1.4838,5.720
61.4760,-1.0994,4.8796,-1.0296,5.107
61.4860,-1.0753,3.4337,-0.6257,3.652
61.5050,-0.6648,0.6250,-0.2240,0.940
61.5250,-0.4654,-1.4364,0.1851,1.521
61.5440,-0.4284,-1.6422,0.8093,1.880
61.5640,-0.4267,-0.2112,1.3905,1.470
61.5930,-0.1554,0.6872,1.3523,1.525
61.6020,-0.1012,0.5354,0.5724,0.790
61.6220,-0.1839,-0.7919,-0.0444,0.814
61.6410,-0.1748,-2.1442,-0.1886,2.160
61.6600,0.2328,-3.3281,0.2482,3.345
61.6800,0.8415,-4.1287,0.6697,4.267
61.6990,1.3482,-4.4318,0.9204,4.723
61.7180,1.4669,-4.3625,0.9568,4.701
61.7380,1.3042,-4.0886,0.8243,4.370
61.7580,1.1271,-3.8670,0.7762,4.102
61.7770,0.9023,-3.3262,0.8969,3.561
61.7970,0.6465,-2.6836,0.8779,2.897
61.8160,0.2778,-2.0831,0.7360,2.227
61.8500,-0.1925,-1.3607,0.5821,1.492
61.8560,-0.7645,-0.3696,0.6298,1.057
61.8730,-1.4179,0.7540,0.7268,1.763
61.8930,-2.2316,1.8258,0.8208,2.998
61.9130,-2.8564,2.5274,0.5856,3.859
61.9320,-3.1871,2.3585,0.3706,3.982
61.9520,-3.4263,2.5732,0.3106,4.296
61.9810,-3.3404,3.2198,0.7474,4.699
61.9910,-2.7434,2.8834,1.4858,4.248
62.0090,-2.1331,0.8231,2.1967,3.171
62.0290,-1.9737,-1.1438,2.6077,3.465
62.0510,-2.0050,-1.4741,2.4242,3.474
62.0680,-2.1400,0.3783,1.4765,2.627
62.0880,-1.8156,1.9963,0.3037,2.715
62.1120,-1.0755,2.1324,-0.8342,2.530
62.1300,-0.3072,0.9821,-1.6647,1.957
62.1450,0.6481,-0.4317,-2.1190,2.258
62.1650,1.4453,-1.2531,-1.9211,2.711
62.1840,2.0380,-1.3484,-1.5655,2.902
62.2030,2.4028,-1.1965,-1.0230,2.872
62.2260,2.4642,-1.2762,-0.7770,2.882
62.2500,2.4562,-1.5165,-0.8380,3.006
62.2610,2.4308,-1.6090,-1.0018,3.082
62.2810,2.4001,-1.0681,-1.0572,2.832
62.3010,2.4484,-0.2752,-1.0062,2.661
62.3200,2.6250,0.3264,-0.8930,2.792
62.3450,2.6736,1.0586,-0.8983,3.013
62.3870,2.2978,2.1776,-0.8010,3.266
62.3870,1.5895,3.5390,-0.7349,3.949
62.3980,0.7306,4.8331,-0.8364,4.959
62.4160,0.2524,5.0314,-1.2822,5.198
62.4360,0.0075,4.4874,-1.6610,4.785
62.4570,-0.3274,4.6449,-1.5617,4.911
62.4820,-0.2788,4.7250,-1.0747,4.854
62.4950,-0.4810,4.4926,-0.5592,4.553
62.5150,-0.2866,2.6263,-0.5418,2.697
62.5330,-0.2767,0.4100,-0.5701,0.755
62.5530,-0.4363,-0.9747,0.1837,1.084
62.5730,-0.7647,-0.5660,1.1365,1.482
62.6080,-1.1314,1.3423,1.5176,2.321
62.6110,-0.4988,1.3886,0.8238,1.690
62.6300,0.1204,0.1526,-0.1729,0.260
62.6490,0.3453,-1.5145,-0.8322,1.762
62.6700,0.6368,-2.6667,-0.9661,2.907
62.7090,1.1449,-3.5227,-0.3796,3.723
62.7090,1.6474,-3.9059,0.0775,4.240
62.7270,1.9088,-4.0142,0.2721,4.453
62.7460,1.7870,-3.9801,0.4654,4.388
62.7670,1.4423,-3.7827,0.5691,4.088
62.7850,1.0287,-3.4183,0.7577,3.649
62.8060,0.6724,-2.8189,0.9193,3.040
62.8370,0.3681,-2.1667,0.8967,2.374
62.8430,0.0141,-1.5894,0.7604,1.762
62.8630,-0.5014,-0.8138,0.6363,1.148
62.8820,-1.1089,0.2592,0.5828,1.279
62.9010,-1.7870,1.2476,0.6489,2.274
62.9210,-2.5277,2.3351,0.6727,3.506
62.9410,-3.0499,2.7125,0.6024,4.126
62.9710,-3.3828,2.2141,0.5828,4.085
62.9790,-3.3512,1.8687,0.5788,3.880
62.9980,-3.1337,2.1721,0.9866,3.939
63.0180,-2.7635,1.9510,1.5924,3.739
63.0370,-2.5740,0.7321,2.3746,3.578
63.0570,-2.5363,-0.7597,2.7178,3.794
63.0770,-2.5262,-0.8736,2.2911,3.521
63.1090,-2.4215,0.6808,1.1639,2.772
63.1150,-1.9817,1.8938,0.0238,2.741
63.1340,-1.2787,1.6213,-1.0016,2.295
63.1540,-0.5475,0.3755,-1.7347,1.857
63.1730,0.4213,-1.1691,-1.9902,2.346
63.1930,1.2269,-2.0655,-1.8978,3.062
63.2120,1.9619,-2.4184,-1.4196,3.422
63.2450,2.5497,-2.2796,-0.7855,3.509
63.2510,2.8420,-2.2100,-0.4578,3.629
63.2710,2.8348,-2.4052,-0.4779,3.748
63.2900,2.8352,-2.4060,-0.5085,3.753
63.3090,2.9142,-1.5503,-0.4392,3.330
63.3290,3.0751,-0.0811,-0.3872,3.100
63.3520,3.0226,1.4298,-0.2422,3.352
63.3930,2.5878,2.6541,-0.4210,3.731
63.3930,1.6340,3.6546,-1.1039,4.153
63.4100,0.5820,4.4957,-1.8453,4.894
63.4250,-0.0962,5.0088,-2.4798,5.590
63.4450,-0.3742,4.8660,-2.8698,5.662
63.4640,-0.8057,5.1890,-2.6562,5.885
63.4850,-0.9457,5.5027,-2.2116,6.005
63.5060,-1.3354,5.4142,-1.7872,5.856
63.5490,-1.3392,3.7182,-1.8359,4.358
63.5490,-1.1233,0.9500,-1.7105,2.256
63.5610,-1.2014,-0.5765,-0.7066,1.508
63.5800,-1.3054,-0.6559,0.4394,1.526
63.6000,-1.2430,0.3031,1.1484,1.719
63.6190,0.0343,0.4171,0.5707,0.708
63.6410,1.0091,0.0695,-0.1357,1.021
63.6820,1.3534,-0.8314,-0.2946,1.615
63.6820,1.4168,-1.7577,0.0041,2.258
63.6970,1.6105,-2.6229,0.5321,3.123
63.7160,1.7119,-3.1804,0.7972,3.699
63.7360,1.7300,-3.4965,0.8782,3.999
63.7570,1.5586,-3.4903,0.9612,3.941
63.7750,1.3562,-3.6661,1.1138,4.065
63.8130,1.0934,-3.8477,1.3440,4.220
63.8140,0.8024,-3.8739,1.5851,4.262
63.8320,0.4689,-3.4836,1.7592,3.931
63.8520,-0.0110,-2.6299,1.8107,3.193
63.8720,-0.5908,-1.5339,1.8314,2.461
63.8920,-1.3183,-0.5690,1.8598,2.350
63.9110,-2.1991,0.4009,1.7929,2.866
